"rt","stimulus","key_press","trial_type","trial_index","time_elapsed","internal_node_id","participant","uid","list","timestamp","condition","block","item_no","correct","responses"
"1064960.2999999917","By answering the following questions, you are participating in a study being performed by cognitive scientists in the Stanford Department of Psychology. If you have questions about this research, please contact us at <a href=""mailto:stanfordpsych251@gmail.com""> stanfordpsych251@gmail.com</a>. You must be at least 18 years old to participate, and you must be a native English speaker and have normal or corrected-to-normal vision. Your participation in this research is voluntary. You may decline to answer any or all of the following questions. You may decline further participation, at any time, without adverse consequences. Your anonymity is assured; the researchers who have requested your participation will not receive any personal information about you. We have recently been made aware that your public Amazon.com profile can be accessed via your worker ID if you do not choose to opt out. If you would like to opt out of this feature, you may follow instructions available <a href=""http://www.amazon.com/gp/help/customer/display.html?nodeId=16465241"">here</a>. <br /><br />[Press spacebar to continue.]","32","html-keyboard-response","0","1064963","0.0-0.0","","7y6o5fz2aa","2","1605121115395","","","","",""
"27814.189999990165","Each screen will show a sequence of five English words, which either form a grammatical English sentence (e.g. ""The cow eats the grass"") or an ungrammatical sequence (e.g. ""Planet orange a the mention""). Decide as rapidly and as accurately as possible if the sequence of words forms a grammatically correct sentence or not. Press the 'J' key with your right index finger if the sequence is grammatical, and press the 'F' key with your left index finger if the sequence is ungrammatical. A colored dot will then appear, indicating whether your response was correct (green) or incorrect (red).<br /><br />There will be two practice sequences, followed by four blocks of test sequences. Please sit about 60cm away from your screen, and display the task in full screen. This HIT takes around 10 minutes to complete; please complete it in one sitting. <br /><br />[Press spacebar to begin the practice.]","32","html-keyboard-response","1","1092778","0.0-1.0","","7y6o5fz2aa","2","1605121115395","","","","",""
"null","<p class=""stimulus"">+</p>","null","html-keyboard-response","2","1093405","0.0-2.0-0.0","","7y6o5fz2aa","2","1605121115395","","","","",""
"2154.999999998836","<p class='stimulus'>It moved over there slowly</p>","74","html-keyboard-response","3","1095561","0.0-2.0-1.0","","7y6o5fz2aa","2","1605121115395","gram","0","164","true",""
"null","<svg width=""40"" height=""40""><circle             cx=""20"" cy=""20"" r=""20"" fill=""green"" /></svg>","null","html-keyboard-response","4","1097572","0.0-2.0-2.0","","7y6o5fz2aa","2","1605121115395","","","","",""
"null","<p class=""stimulus"">+</p>","null","html-keyboard-response","5","1098196","0.0-2.0-0.1","","7y6o5fz2aa","2","1605121115395","","","","",""
"1361.5699999937788","<p class='stimulus'>The white was cat big</p>","74","html-keyboard-response","6","1099559","0.0-2.0-1.1","","7y6o5fz2aa","2","1605121115395","transword","0","163","false",""
"null","<svg width=""40"" height=""40""><circle             cx=""20"" cy=""20"" r=""20"" fill=""red"" /></svg>","null","html-keyboard-response","7","1101572","0.0-2.0-2.1","","7y6o5fz2aa","2","1605121115395","","","","",""
"5606.100000004284","You have completed the practice. You will now begin the experiment proper, which is composed of four blocks of sequences.<br /><br />[Press spacebar to begin the experiment.]","32","html-keyboard-response","8","1107179","0.0-3.0","","7y6o5fz2aa","2","1605121115395","","","","",""
"null","<p class=""stimulus"">+</p>","null","html-keyboard-response","9","1107703","0.0-4.0-0.0","","7y6o5fz2aa","2","1605121115395","","","","",""
"3278.420000002254","<p class='stimulus'>The sweet bread is good</p>","74","html-keyboard-response","10","1110982","0.0-4.0-1.0","","7y6o5fz2aa","2","1605121115395","gram","1","247","true",""
"null","<svg width=""40"" height=""40""><circle             cx=""20"" cy=""20"" r=""20"" fill=""green"" /></svg>","null","html-keyboard-response","11","1112994","0.0-4.0-2.0","","7y6o5fz2aa","2","1605121115395","","","","",""
"null","<p class=""stimulus"">+</p>","null","html-keyboard-response","12","1113527","0.0-4.0-0.1","","7y6o5fz2aa","2","1605121115395","","","","",""
"1309.3850000007078","<p class='stimulus'>They wanted to sleep more</p>","74","html-keyboard-response","13","1114838","0.0-4.0-1.1","","7y6o5fz2aa","2","1605121115395","gram","1","267","true",""
"null","<svg width=""40"" height=""40""><circle             cx=""20"" cy=""20"" r=""20"" fill=""green"" /></svg>","null","html-keyboard-response","14","1116844","0.0-4.0-2.1","","7y6o5fz2aa","2","1605121115395","","","","",""
"null","<p class=""stimulus"">+</p>","null","html-keyboard-response","15","1117364","0.0-4.0-0.2","","7y6o5fz2aa","2","1605121115395","","","","",""
"1915.2499999909196","<p class='stimulus'>His short felt girlfriend cold</p>","70","html-keyboard-response","16","1119280","0.0-4.0-1.2","","7y6o5fz2aa","2","1605121115395","transword","1","225","true",""
"null","<svg width=""40"" height=""40""><circle             cx=""20"" cy=""20"" r=""20"" fill=""green"" /></svg>","null","html-keyboard-response","17","1121290","0.0-4.0-2.2","","7y6o5fz2aa","2","1605121115395","","","","",""
"null","<p class=""stimulus"">+</p>","null","html-keyboard-response","18","1121814","0.0-4.0-0.3","","7y6o5fz2aa","2","1605121115395","","","","",""
"1976.3850000016391","<p class='stimulus'>This is her second daughter</p>","74","html-keyboard-response","19","1123792","0.0-4.0-1.3","","7y6o5fz2aa","2","1605121115395","gram","1","307","true",""
"null","<svg width=""40"" height=""40""><circle             cx=""20"" cy=""20"" r=""20"" fill=""green"" /></svg>","null","html-keyboard-response","20","1125795","0.0-4.0-2.3","","7y6o5fz2aa","2","1605121115395","","","","",""
"null","<p class=""stimulus"">+</p>","null","html-keyboard-response","21","1126314","0.0-4.0-0.4","","7y6o5fz2aa","2","1605121115395","","","","",""
"1587.2250000103377","<p class='stimulus'>They have four children altogether</p>","74","html-keyboard-response","22","1127902","0.0-4.0-1.4","","7y6o5fz2aa","2","1605121115395","gram","1","306","true",""
"null","<svg width=""40"" height=""40""><circle             cx=""20"" cy=""20"" r=""20"" fill=""green"" /></svg>","null","html-keyboard-response","23","1129916","0.0-4.0-2.4","","7y6o5fz2aa","2","1605121115395","","","","",""
"null","<p class=""stimulus"">+</p>","null","html-keyboard-response","24","1130448","0.0-4.0-0.5","","7y6o5fz2aa","2","1605121115395","","","","",""
"1756.9649999933317","<p class='stimulus'>His nice friend best everything</p>","70","html-keyboard-response","25","1132206","0.0-4.0-1.5","","7y6o5fz2aa","2","1605121115395","control","1","169","true",""
"null","<svg width=""40"" height=""40""><circle             cx=""20"" cy=""20"" r=""20"" fill=""green"" /></svg>","null","html-keyboard-response","26","1134215","0.0-4.0-2.5","","7y6o5fz2aa","2","1605121115395","","","","",""
"null","<p class=""stimulus"">+</p>","null","html-keyboard-response","27","1134735","0.0-4.0-0.6","","7y6o5fz2aa","2","1605121115395","","","","",""
"2265.285000001313","<p class='stimulus'>This beautiful panel solar easily</p>","70","html-keyboard-response","28","1137001","0.0-4.0-1.6","","7y6o5fz2aa","2","1605121115395","control","1","187","true",""
"null","<svg width=""40"" height=""40""><circle             cx=""20"" cy=""20"" r=""20"" fill=""green"" /></svg>","null","html-keyboard-response","29","1139011","0.0-4.0-2.6","","7y6o5fz2aa","2","1605121115395","","","","",""
"null","<p class=""stimulus"">+</p>","null","html-keyboard-response","30","1139529","0.0-4.0-0.7","","7y6o5fz2aa","2","1605121115395","","","","",""
"1596.0550000017975","<p class='stimulus'>The garden vegetables grew out</p>","70","html-keyboard-response","31","1141126","0.0-4.0-1.7","","7y6o5fz2aa","2","1605121115395","gram","1","305","false",""
"null","<svg width=""40"" height=""40""><circle             cx=""20"" cy=""20"" r=""20"" fill=""red"" /></svg>","null","html-keyboard-response","32","1143139","0.0-4.0-2.7","","7y6o5fz2aa","2","1605121115395","","","","",""
"null","<p class=""stimulus"">+</p>","null","html-keyboard-response","33","1143657","0.0-4.0-0.8","","7y6o5fz2aa","2","1605121115395","","","","",""
"1414.7549999908078","<p class='stimulus'>The cough syrup was helpful</p>","74","html-keyboard-response","34","1145073","0.0-4.0-1.8","","7y6o5fz2aa","2","1605121115395","gram","1","248","true",""
"null","<svg width=""40"" height=""40""><circle             cx=""20"" cy=""20"" r=""20"" fill=""green"" /></svg>","null","html-keyboard-response","35","1147087","0.0-4.0-2.8","","7y6o5fz2aa","2","1605121115395","","","","",""
"null","<p class=""stimulus"">+</p>","null","html-keyboard-response","36","1147606","0.0-4.0-0.9","","7y6o5fz2aa","2","1605121115395","","","","",""
"1801.974999994738","<p class='stimulus'>We will for come dinner</p>","74","html-keyboard-response","37","1149409","0.0-4.0-1.9","","7y6o5fz2aa","2","1605121115395","transword","1","226","false",""
"null","<svg width=""40"" height=""40""><circle             cx=""20"" cy=""20"" r=""20"" fill=""red"" /></svg>","null","html-keyboard-response","38","1151412","0.0-4.0-2.9","","7y6o5fz2aa","2","1605121115395","","","","",""
"null","<p class=""stimulus"">+</p>","null","html-keyboard-response","39","1151933","0.0-4.0-0.10","","7y6o5fz2aa","2","1605121115395","","","","",""
"2119.294999996666","<p class='stimulus'>Their door bell is ringing</p>","74","html-keyboard-response","40","1154053","0.0-4.0-1.10","","7y6o5fz2aa","2","1605121115395","gram","1","269","true",""
"null","<svg width=""40"" height=""40""><circle             cx=""20"" cy=""20"" r=""20"" fill=""green"" /></svg>","null","html-keyboard-response","41","1156065","0.0-4.0-2.10","","7y6o5fz2aa","2","1605121115395","","","","",""
"null","<p class=""stimulus"">+</p>","null","html-keyboard-response","42","1156598","0.0-4.0-0.11","","7y6o5fz2aa","2","1605121115395","","","","",""
"1649.4099999980535","<p class='stimulus'>My wooden is cabin there</p>","70","html-keyboard-response","43","1158248","0.0-4.0-1.11","","7y6o5fz2aa","2","1605121115395","transword","1","206","true",""
"null","<svg width=""40"" height=""40""><circle             cx=""20"" cy=""20"" r=""20"" fill=""green"" /></svg>","null","html-keyboard-response","44","1160251","0.0-4.0-2.11","","7y6o5fz2aa","2","1605121115395","","","","",""
"null","<p class=""stimulus"">+</p>","null","html-keyboard-response","45","1160769","0.0-4.0-0.12","","7y6o5fz2aa","2","1605121115395","","","","",""
"2558.9199999957345","<p class='stimulus'>You should leave really moving</p>","70","html-keyboard-response","46","1163329","0.0-4.0-1.12","","7y6o5fz2aa","2","1605121115395","control","1","165","true",""
"null","<svg width=""40"" height=""40""><circle             cx=""20"" cy=""20"" r=""20"" fill=""green"" /></svg>","null","html-keyboard-response","47","1165339","0.0-4.0-2.12","","7y6o5fz2aa","2","1605121115395","","","","",""
"null","<p class=""stimulus"">+</p>","null","html-keyboard-response","48","1165857","0.0-4.0-0.13","","7y6o5fz2aa","2","1605121115395","","","","",""
"2256.3349999981","<p class='stimulus'>The baker makes good pastries</p>","74","html-keyboard-response","49","1168115","0.0-4.0-1.13","","7y6o5fz2aa","2","1605121115395","gram","1","289","true",""
"null","<svg width=""40"" height=""40""><circle             cx=""20"" cy=""20"" r=""20"" fill=""green"" /></svg>","null","html-keyboard-response","50","1170117","0.0-4.0-2.13","","7y6o5fz2aa","2","1605121115395","","","","",""
"null","<p class=""stimulus"">+</p>","null","html-keyboard-response","51","1170650","0.0-4.0-0.14","","7y6o5fz2aa","2","1605121115395","","","","",""
"1626.9549999996088","<p class='stimulus'>The newspaper can be recycled</p>","74","html-keyboard-response","52","1172277","0.0-4.0-1.14","","7y6o5fz2aa","2","1605121115395","gram","1","308","true",""
"null","<svg width=""40"" height=""40""><circle             cx=""20"" cy=""20"" r=""20"" fill=""green"" /></svg>","null","html-keyboard-response","53","1174282","0.0-4.0-2.14","","7y6o5fz2aa","2","1605121115395","","","","",""
"null","<p class=""stimulus"">+</p>","null","html-keyboard-response","54","1174800","0.0-4.0-0.15","","7y6o5fz2aa","2","1605121115395","","","","",""
"1962.160000009928","<p class='stimulus'>The scared really children cried</p>","70","html-keyboard-response","55","1176763","0.0-4.0-1.15","","7y6o5fz2aa","2","1605121115395","transword","1","207","true",""
"null","<svg width=""40"" height=""40""><circle             cx=""20"" cy=""20"" r=""20"" fill=""green"" /></svg>","null","html-keyboard-response","56","1178767","0.0-4.0-2.15","","7y6o5fz2aa","2","1605121115395","","","","",""
"null","<p class=""stimulus"">+</p>","null","html-keyboard-response","57","1179300","0.0-4.0-0.16","","7y6o5fz2aa","2","1605121115395","","","","",""
"1277.5000000111759","<p class='stimulus'>The belt is too long</p>","74","html-keyboard-response","58","1180578","0.0-4.0-1.16","","7y6o5fz2aa","2","1605121115395","gram","1","309","true",""
"null","<svg width=""40"" height=""40""><circle             cx=""20"" cy=""20"" r=""20"" fill=""green"" /></svg>","null","html-keyboard-response","59","1182584","0.0-4.0-2.16","","7y6o5fz2aa","2","1605121115395","","","","",""
"null","<p class=""stimulus"">+</p>","null","html-keyboard-response","60","1183103","0.0-4.0-0.17","","7y6o5fz2aa","2","1605121115395","","","","",""
"1234.6600000017788","<p class='stimulus'>His fine breaks pen works</p>","70","html-keyboard-response","61","1184338","0.0-4.0-1.17","","7y6o5fz2aa","2","1605121115395","control","1","188","true",""
"null","<svg width=""40"" height=""40""><circle             cx=""20"" cy=""20"" r=""20"" fill=""green"" /></svg>","null","html-keyboard-response","62","1186342","0.0-4.0-2.17","","7y6o5fz2aa","2","1605121115395","","","","",""
"null","<p class=""stimulus"">+</p>","null","html-keyboard-response","63","1186861","0.0-4.0-0.18","","7y6o5fz2aa","2","1605121115395","","","","",""
"2175.825000012759","<p class='stimulus'>Her desk has rounded corners</p>","74","html-keyboard-response","64","1189038","0.0-4.0-1.18","","7y6o5fz2aa","2","1605121115395","gram","1","286","true",""
"null","<svg width=""40"" height=""40""><circle             cx=""20"" cy=""20"" r=""20"" fill=""green"" /></svg>","null","html-keyboard-response","65","1191044","0.0-4.0-2.18","","7y6o5fz2aa","2","1605121115395","","","","",""
"null","<p class=""stimulus"">+</p>","null","html-keyboard-response","66","1191574","0.0-4.0-0.19","","7y6o5fz2aa","2","1605121115395","","","","",""
"1659.7150000017136","<p class='stimulus'>The famous is beach rockular</p>","70","html-keyboard-response","67","1193234","0.0-4.0-1.19","","7y6o5fz2aa","2","1605121115395","transword","1","228","true",""
"null","<svg width=""40"" height=""40""><circle             cx=""20"" cy=""20"" r=""20"" fill=""green"" /></svg>","null","html-keyboard-response","68","1195248","0.0-4.0-2.19","","7y6o5fz2aa","2","1605121115395","","","","",""
"null","<p class=""stimulus"">+</p>","null","html-keyboard-response","69","1195767","0.0-4.0-0.20","","7y6o5fz2aa","2","1605121115395","","","","",""
"1668.3950000004843","<p class='stimulus'>Her handsome is neighbor now</p>","70","html-keyboard-response","70","1197436","0.0-4.0-1.20","","7y6o5fz2aa","2","1605121115395","control","1","166","true",""
"null","<svg width=""40"" height=""40""><circle             cx=""20"" cy=""20"" r=""20"" fill=""green"" /></svg>","null","html-keyboard-response","71","1199438","0.0-4.0-2.20","","7y6o5fz2aa","2","1605121115395","","","","",""
"null","<p class=""stimulus"">+</p>","null","html-keyboard-response","72","1199961","0.0-4.0-0.21","","7y6o5fz2aa","2","1605121115395","","","","",""
"1730.3950000058394","<p class='stimulus'>The blue whales are migrating</p>","74","html-keyboard-response","73","1201692","0.0-4.0-1.21","","7y6o5fz2aa","2","1605121115395","gram","1","288","true",""
"null","<svg width=""40"" height=""40""><circle             cx=""20"" cy=""20"" r=""20"" fill=""green"" /></svg>","null","html-keyboard-response","74","1203701","0.0-4.0-2.21","","7y6o5fz2aa","2","1605121115395","","","","",""
"null","<p class=""stimulus"">+</p>","null","html-keyboard-response","75","1204225","0.0-4.0-0.22","","7y6o5fz2aa","2","1605121115395","","","","",""
"1563.8099999921396","<p class='stimulus'>The young bounces girl passed</p>","70","html-keyboard-response","76","1205790","0.0-4.0-1.22","","7y6o5fz2aa","2","1605121115395","control","1","168","true",""
"null","<svg width=""40"" height=""40""><circle             cx=""20"" cy=""20"" r=""20"" fill=""green"" /></svg>","null","html-keyboard-response","77","1207801","0.0-4.0-2.22","","7y6o5fz2aa","2","1605121115395","","","","",""
"null","<p class=""stimulus"">+</p>","null","html-keyboard-response","78","1208326","0.0-4.0-0.23","","7y6o5fz2aa","2","1605121115395","","","","",""
"1936.2800000088755","<p class='stimulus'>She eats fruit a disappear</p>","70","html-keyboard-response","79","1210263","0.0-4.0-1.23","","7y6o5fz2aa","2","1605121115395","control","1","189","true",""
"null","<svg width=""40"" height=""40""><circle             cx=""20"" cy=""20"" r=""20"" fill=""green"" /></svg>","null","html-keyboard-response","80","1212273","0.0-4.0-2.23","","7y6o5fz2aa","2","1605121115395","","","","",""
"null","<p class=""stimulus"">+</p>","null","html-keyboard-response","81","1212792","0.0-4.0-0.24","","7y6o5fz2aa","2","1605121115395","","","","",""
"1926.709999999497","<p class='stimulus'>These pretty stones oval gently</p>","70","html-keyboard-response","82","1214720","0.0-4.0-1.24","","7y6o5fz2aa","2","1605121115395","control","1","185","true",""
"null","<svg width=""40"" height=""40""><circle             cx=""20"" cy=""20"" r=""20"" fill=""green"" /></svg>","null","html-keyboard-response","83","1216733","0.0-4.0-2.24","","7y6o5fz2aa","2","1605121115395","","","","",""
"null","<p class=""stimulus"">+</p>","null","html-keyboard-response","84","1217250","0.0-4.0-0.25","","7y6o5fz2aa","2","1605121115395","","","","",""
"2759.9550000012387","<p class='stimulus'>There should be no problem</p>","70","html-keyboard-response","85","1220011","0.0-4.0-1.25","","7y6o5fz2aa","2","1605121115395","gram","1","265","false",""
"null","<svg width=""40"" height=""40""><circle             cx=""20"" cy=""20"" r=""20"" fill=""red"" /></svg>","null","html-keyboard-response","86","1222013","0.0-4.0-2.25","","7y6o5fz2aa","2","1605121115395","","","","",""
"null","<p class=""stimulus"">+</p>","null","html-keyboard-response","87","1222545","0.0-4.0-0.26","","7y6o5fz2aa","2","1605121115395","","","","",""
"1765.015000011772","<p class='stimulus'>She threw out the flour</p>","74","html-keyboard-response","88","1224311","0.0-4.0-1.26","","7y6o5fz2aa","2","1605121115395","gram","1","245","true",""
"null","<svg width=""40"" height=""40""><circle             cx=""20"" cy=""20"" r=""20"" fill=""green"" /></svg>","null","html-keyboard-response","89","1226326","0.0-4.0-2.26","","7y6o5fz2aa","2","1605121115395","","","","",""
"null","<p class=""stimulus"">+</p>","null","html-keyboard-response","90","1226845","0.0-4.0-0.27","","7y6o5fz2aa","2","1605121115395","","","","",""
"1790.624999994412","<p class='stimulus'>The iron will rust outside</p>","74","html-keyboard-response","91","1228637","0.0-4.0-1.27","","7y6o5fz2aa","2","1605121115395","gram","1","249","true",""
"null","<svg width=""40"" height=""40""><circle             cx=""20"" cy=""20"" r=""20"" fill=""green"" /></svg>","null","html-keyboard-response","92","1230642","0.0-4.0-2.27","","7y6o5fz2aa","2","1605121115395","","","","",""
"null","<p class=""stimulus"">+</p>","null","html-keyboard-response","93","1231161","0.0-4.0-0.28","","7y6o5fz2aa","2","1605121115395","","","","",""
"1594.9099999996834","<p class='stimulus'>I finished a making movie</p>","70","html-keyboard-response","94","1232756","0.0-4.0-1.28","","7y6o5fz2aa","2","1605121115395","transword","1","227","true",""
"null","<svg width=""40"" height=""40""><circle             cx=""20"" cy=""20"" r=""20"" fill=""green"" /></svg>","null","html-keyboard-response","95","1234768","0.0-4.0-2.28","","7y6o5fz2aa","2","1605121115395","","","","",""
"null","<p class=""stimulus"">+</p>","null","html-keyboard-response","96","1235286","0.0-4.0-0.29","","7y6o5fz2aa","2","1605121115395","","","","",""
"1693.780000001425","<p class='stimulus'>Her clever sister little eagerly</p>","70","html-keyboard-response","97","1236981","0.0-4.0-1.29","","7y6o5fz2aa","2","1605121115395","control","1","167","true",""
"null","<svg width=""40"" height=""40""><circle             cx=""20"" cy=""20"" r=""20"" fill=""green"" /></svg>","null","html-keyboard-response","98","1238990","0.0-4.0-2.29","","7y6o5fz2aa","2","1605121115395","","","","",""
"null","<p class=""stimulus"">+</p>","null","html-keyboard-response","99","1239508","0.0-4.0-0.30","","7y6o5fz2aa","2","1605121115395","","","","",""
"1399.3199999968056","<p class='stimulus'>Our father many loves things</p>","70","html-keyboard-response","100","1240908","0.0-4.0-1.30","","7y6o5fz2aa","2","1605121115395","transword","1","209","true",""
"null","<svg width=""40"" height=""40""><circle             cx=""20"" cy=""20"" r=""20"" fill=""green"" /></svg>","null","html-keyboard-response","101","1242915","0.0-4.0-2.30","","7y6o5fz2aa","2","1605121115395","","","","",""
"null","<p class=""stimulus"">+</p>","null","html-keyboard-response","102","1243434","0.0-4.0-0.31","","7y6o5fz2aa","2","1605121115395","","","","",""
"2031.2299999932293","<p class='stimulus'>Their dog very was afraid</p>","70","html-keyboard-response","103","1245466","0.0-4.0-1.31","","7y6o5fz2aa","2","1605121115395","transword","1","229","true",""
"null","<svg width=""40"" height=""40""><circle             cx=""20"" cy=""20"" r=""20"" fill=""green"" /></svg>","null","html-keyboard-response","104","1247467","0.0-4.0-2.31","","7y6o5fz2aa","2","1605121115395","","","","",""
"null","<p class=""stimulus"">+</p>","null","html-keyboard-response","105","1247990","0.0-4.0-0.32","","7y6o5fz2aa","2","1605121115395","","","","",""
"1867.809999995865","<p class='stimulus'>His lawn chair can fold</p>","74","html-keyboard-response","106","1249858","0.0-4.0-1.32","","7y6o5fz2aa","2","1605121115395","gram","1","287","true",""
"null","<svg width=""40"" height=""40""><circle             cx=""20"" cy=""20"" r=""20"" fill=""green"" /></svg>","null","html-keyboard-response","107","1251868","0.0-4.0-2.32","","7y6o5fz2aa","2","1605121115395","","","","",""
"null","<p class=""stimulus"">+</p>","null","html-keyboard-response","108","1252400","0.0-4.0-0.33","","7y6o5fz2aa","2","1605121115395","","","","",""
"1523.285000002943","<p class='stimulus'>The thin falls rod roll</p>","70","html-keyboard-response","109","1253925","0.0-4.0-1.33","","7y6o5fz2aa","2","1605121115395","control","1","186","true",""
"null","<svg width=""40"" height=""40""><circle             cx=""20"" cy=""20"" r=""20"" fill=""green"" /></svg>","null","html-keyboard-response","110","1255926","0.0-4.0-2.33","","7y6o5fz2aa","2","1605121115395","","","","",""
"null","<p class=""stimulus"">+</p>","null","html-keyboard-response","111","1256450","0.0-4.0-0.34","","7y6o5fz2aa","2","1605121115395","","","","",""
"1493.535000001546","<p class='stimulus'>There is a public holiday</p>","74","html-keyboard-response","112","1257944","0.0-4.0-1.34","","7y6o5fz2aa","2","1605121115395","gram","1","285","true",""
"null","<svg width=""40"" height=""40""><circle             cx=""20"" cy=""20"" r=""20"" fill=""green"" /></svg>","null","html-keyboard-response","113","1259959","0.0-4.0-2.34","","7y6o5fz2aa","2","1605121115395","","","","",""
"null","<p class=""stimulus"">+</p>","null","html-keyboard-response","114","1260482","0.0-4.0-0.35","","7y6o5fz2aa","2","1605121115395","","","","",""
"1598.719999994617","<p class='stimulus'>That brown runs horse fast</p>","70","html-keyboard-response","115","1262081","0.0-4.0-1.35","","7y6o5fz2aa","2","1605121115395","transword","1","208","true",""
"null","<svg width=""40"" height=""40""><circle             cx=""20"" cy=""20"" r=""20"" fill=""green"" /></svg>","null","html-keyboard-response","116","1264082","0.0-4.0-2.35","","7y6o5fz2aa","2","1605121115395","","","","",""
"null","<p class=""stimulus"">+</p>","null","html-keyboard-response","117","1264602","0.0-4.0-0.36","","7y6o5fz2aa","2","1605121115395","","","","",""
"2394.1849999974947","<p class='stimulus'>The brown bugs were eaten</p>","74","html-keyboard-response","118","1266997","0.0-4.0-1.36","","7y6o5fz2aa","2","1605121115395","gram","1","268","true",""
"null","<svg width=""40"" height=""40""><circle             cx=""20"" cy=""20"" r=""20"" fill=""green"" /></svg>","null","html-keyboard-response","119","1268999","0.0-4.0-2.36","","7y6o5fz2aa","2","1605121115395","","","","",""
"null","<p class=""stimulus"">+</p>","null","html-keyboard-response","120","1269516","0.0-4.0-0.37","","7y6o5fz2aa","2","1605121115395","","","","",""
"1192.4349999898113","<p class='stimulus'>The flowers grow in spring</p>","74","html-keyboard-response","121","1270710","0.0-4.0-1.37","","7y6o5fz2aa","2","1605121115395","gram","1","266","true",""
"null","<svg width=""40"" height=""40""><circle             cx=""20"" cy=""20"" r=""20"" fill=""green"" /></svg>","null","html-keyboard-response","122","1272719","0.0-4.0-2.37","","7y6o5fz2aa","2","1605121115395","","","","",""
"null","<p class=""stimulus"">+</p>","null","html-keyboard-response","123","1273241","0.0-4.0-0.38","","7y6o5fz2aa","2","1605121115395","","","","",""
"1211.8449999978766","<p class='stimulus'>We wish to see you</p>","74","html-keyboard-response","124","1274453","0.0-4.0-1.38","","7y6o5fz2aa","2","1605121115395","gram","1","246","true",""
"null","<svg width=""40"" height=""40""><circle             cx=""20"" cy=""20"" r=""20"" fill=""green"" /></svg>","null","html-keyboard-response","125","1276467","0.0-4.0-2.38","","7y6o5fz2aa","2","1605121115395","","","","",""
"null","<p class=""stimulus"">+</p>","null","html-keyboard-response","126","1276989","0.0-4.0-0.39","","7y6o5fz2aa","2","1605121115395","","","","",""
"951.3100000037812","<p class='stimulus'>Your old never uncles forget</p>","70","html-keyboard-response","127","1277942","0.0-4.0-1.39","","7y6o5fz2aa","2","1605121115395","transword","1","205","true",""
"null","<svg width=""40"" height=""40""><circle             cx=""20"" cy=""20"" r=""20"" fill=""green"" /></svg>","null","html-keyboard-response","128","1279944","0.0-4.0-2.39","","7y6o5fz2aa","2","1605121115395","","","","",""
"2914.5900000003166","You have completed block 1 of 4. You can take a short pause before continuing; press spacebar when you are ready to continue.<br /><br />[Press spacebar to begin the next block.]","32","html-keyboard-response","129","1282859","0.0-5.0","","7y6o5fz2aa","2","1605121115395","","","","",""
"null","<p class=""stimulus"">+</p>","null","html-keyboard-response","130","1283386","0.0-6.0-0.0","","7y6o5fz2aa","2","1605121115395","","","","",""
"1515.6699999934062","<p class='stimulus'>She always listens to conversations</p>","74","html-keyboard-response","131","1284902","0.0-6.0-1.0","","7y6o5fz2aa","2","1605121115395","gram","2","274","true",""
"null","<svg width=""40"" height=""40""><circle             cx=""20"" cy=""20"" r=""20"" fill=""green"" /></svg>","null","html-keyboard-response","132","1286906","0.0-6.0-2.0","","7y6o5fz2aa","2","1605121115395","","","","",""
"null","<p class=""stimulus"">+</p>","null","html-keyboard-response","133","1287433","0.0-6.0-0.1","","7y6o5fz2aa","2","1605121115395","","","","",""
"1022.9349999865517","<p class='stimulus'>You seem to live dangerously</p>","70","html-keyboard-response","134","1288457","0.0-6.0-1.1","","7y6o5fz2aa","2","1605121115395","gram","2","273","false",""
"null","<svg width=""40"" height=""40""><circle             cx=""20"" cy=""20"" r=""20"" fill=""red"" /></svg>","null","html-keyboard-response","135","1290472","0.0-6.0-2.1","","7y6o5fz2aa","2","1605121115395","","","","",""
"null","<p class=""stimulus"">+</p>","null","html-keyboard-response","136","1290999","0.0-6.0-0.2","","7y6o5fz2aa","2","1605121115395","","","","",""
"1218.6850000000559","<p class='stimulus'>The flexible climbs girl high</p>","70","html-keyboard-response","137","1292218","0.0-6.0-1.2","","7y6o5fz2aa","2","1605121115395","transword","2","233","true",""
"null","<svg width=""40"" height=""40""><circle             cx=""20"" cy=""20"" r=""20"" fill=""green"" /></svg>","null","html-keyboard-response","138","1294222","0.0-6.0-2.2","","7y6o5fz2aa","2","1605121115395","","","","",""
"null","<p class=""stimulus"">+</p>","null","html-keyboard-response","139","1294762","0.0-6.0-0.3","","7y6o5fz2aa","2","1605121115395","","","","",""
"1339.1200000040699","<p class='stimulus'>That poor can man ill</p>","70","html-keyboard-response","140","1296102","0.0-6.0-1.3","","7y6o5fz2aa","2","1605121115395","control","2","191","true",""
"null","<svg width=""40"" height=""40""><circle             cx=""20"" cy=""20"" r=""20"" fill=""green"" /></svg>","null","html-keyboard-response","141","1298104","0.0-6.0-2.3","","7y6o5fz2aa","2","1605121115395","","","","",""
"null","<p class=""stimulus"">+</p>","null","html-keyboard-response","142","1298646","0.0-6.0-0.4","","7y6o5fz2aa","2","1605121115395","","","","",""
"1774.3650000048801","<p class='stimulus'>I went the to cinema</p>","74","html-keyboard-response","143","1300421","0.0-6.0-1.4","","7y6o5fz2aa","2","1605121115395","transword","2","214","false",""
"null","<svg width=""40"" height=""40""><circle             cx=""20"" cy=""20"" r=""20"" fill=""red"" /></svg>","null","html-keyboard-response","144","1302431","0.0-6.0-2.4","","7y6o5fz2aa","2","1605121115395","","","","",""
"null","<p class=""stimulus"">+</p>","null","html-keyboard-response","145","1302969","0.0-6.0-0.5","","7y6o5fz2aa","2","1605121115395","","","","",""
"1346.520000006305","<p class='stimulus'>They want destroy to new</p>","74","html-keyboard-response","146","1304316","0.0-6.0-1.5","","7y6o5fz2aa","2","1605121115395","control","2","194","false",""
"null","<svg width=""40"" height=""40""><circle             cx=""20"" cy=""20"" r=""20"" fill=""red"" /></svg>","null","html-keyboard-response","147","1306326","0.0-6.0-2.5","","7y6o5fz2aa","2","1605121115395","","","","",""
"null","<p class=""stimulus"">+</p>","null","html-keyboard-response","148","1306864","0.0-6.0-0.6","","7y6o5fz2aa","2","1605121115395","","","","",""
"1506.1550000100397","<p class='stimulus'>Paper burns in the sun</p>","74","html-keyboard-response","149","1308372","0.0-6.0-1.6","","7y6o5fz2aa","2","1605121115395","gram","2","250","true",""
"null","<svg width=""40"" height=""40""><circle             cx=""20"" cy=""20"" r=""20"" fill=""green"" /></svg>","null","html-keyboard-response","150","1310374","0.0-6.0-2.6","","7y6o5fz2aa","2","1605121115395","","","","",""
"null","<p class=""stimulus"">+</p>","null","html-keyboard-response","151","1310902","0.0-6.0-0.7","","7y6o5fz2aa","2","1605121115395","","","","",""
"1201.9000000001397","<p class='stimulus'>You listen to rock songs</p>","70","html-keyboard-response","152","1312105","0.0-6.0-1.7","","7y6o5fz2aa","2","1605121115395","gram","2","314","false",""
"null","<svg width=""40"" height=""40""><circle             cx=""20"" cy=""20"" r=""20"" fill=""red"" /></svg>","null","html-keyboard-response","153","1314113","0.0-6.0-2.7","","7y6o5fz2aa","2","1605121115395","","","","",""
"null","<p class=""stimulus"">+</p>","null","html-keyboard-response","154","1314650","0.0-6.0-0.8","","7y6o5fz2aa","2","1605121115395","","","","",""
"1038.0850000074133","<p class='stimulus'>The weather is sunny today</p>","74","html-keyboard-response","155","1315689","0.0-6.0-1.8","","7y6o5fz2aa","2","1605121115395","gram","2","312","true",""
"null","<svg width=""40"" height=""40""><circle             cx=""20"" cy=""20"" r=""20"" fill=""green"" /></svg>","null","html-keyboard-response","156","1317705","0.0-6.0-2.8","","7y6o5fz2aa","2","1605121115395","","","","",""
"null","<p class=""stimulus"">+</p>","null","html-keyboard-response","157","1318231","0.0-6.0-0.9","","7y6o5fz2aa","2","1605121115395","","","","",""
"1397.3950000072364","<p class='stimulus'>The huge lights star laughs</p>","70","html-keyboard-response","158","1319629","0.0-6.0-1.9","","7y6o5fz2aa","2","1605121115395","control","2","170","true",""
"null","<svg width=""40"" height=""40""><circle             cx=""20"" cy=""20"" r=""20"" fill=""green"" /></svg>","null","html-keyboard-response","159","1321645","0.0-6.0-2.9","","7y6o5fz2aa","2","1605121115395","","","","",""
"null","<p class=""stimulus"">+</p>","null","html-keyboard-response","160","1322187","0.0-6.0-0.10","","7y6o5fz2aa","2","1605121115395","","","","",""
"2237.5400000019","<p class='stimulus'>Her young smiled kid happily</p>","70","html-keyboard-response","161","1324425","0.0-6.0-1.10","","7y6o5fz2aa","2","1605121115395","transword","2","212","true",""
"null","<svg width=""40"" height=""40""><circle             cx=""20"" cy=""20"" r=""20"" fill=""green"" /></svg>","null","html-keyboard-response","162","1326429","0.0-6.0-2.10","","7y6o5fz2aa","2","1605121115395","","","","",""
"null","<p class=""stimulus"">+</p>","null","html-keyboard-response","163","1326956","0.0-6.0-0.11","","7y6o5fz2aa","2","1605121115395","","","","",""
"1884.160000001546","<p class='stimulus'>My fresh is watermelon tasty</p>","70","html-keyboard-response","164","1328841","0.0-6.0-1.11","","7y6o5fz2aa","2","1605121115395","transword","2","213","true",""
"null","<svg width=""40"" height=""40""><circle             cx=""20"" cy=""20"" r=""20"" fill=""green"" /></svg>","null","html-keyboard-response","165","1330847","0.0-6.0-2.11","","7y6o5fz2aa","2","1605121115395","","","","",""
"null","<p class=""stimulus"">+</p>","null","html-keyboard-response","166","1331381","0.0-6.0-0.12","","7y6o5fz2aa","2","1605121115395","","","","",""
"1545.404999997234","<p class='stimulus'>These fruit candies are delicious</p>","74","html-keyboard-response","167","1332927","0.0-6.0-1.12","","7y6o5fz2aa","2","1605121115395","gram","2","291","true",""
"null","<svg width=""40"" height=""40""><circle             cx=""20"" cy=""20"" r=""20"" fill=""green"" /></svg>","null","html-keyboard-response","168","1334941","0.0-6.0-2.12","","7y6o5fz2aa","2","1605121115395","","","","",""
"null","<p class=""stimulus"">+</p>","null","html-keyboard-response","169","1335481","0.0-6.0-0.13","","7y6o5fz2aa","2","1605121115395","","","","",""
"1853.8550000083633","<p class='stimulus'>There are so many people</p>","74","html-keyboard-response","170","1337335","0.0-6.0-1.13","","7y6o5fz2aa","2","1605121115395","gram","2","252","true",""
"null","<svg width=""40"" height=""40""><circle             cx=""20"" cy=""20"" r=""20"" fill=""green"" /></svg>","null","html-keyboard-response","171","1339340","0.0-6.0-2.13","","7y6o5fz2aa","2","1605121115395","","","","",""
"null","<p class=""stimulus"">+</p>","null","html-keyboard-response","172","1339867","0.0-6.0-0.14","","7y6o5fz2aa","2","1605121115395","","","","",""
"1018.2350000105798","<p class='stimulus'>They went to a museum</p>","74","html-keyboard-response","173","1340886","0.0-6.0-1.14","","7y6o5fz2aa","2","1605121115395","gram","2","311","true",""
"null","<svg width=""40"" height=""40""><circle             cx=""20"" cy=""20"" r=""20"" fill=""green"" /></svg>","null","html-keyboard-response","174","1342900","0.0-6.0-2.14","","7y6o5fz2aa","2","1605121115395","","","","",""
"null","<p class=""stimulus"">+</p>","null","html-keyboard-response","175","1343427","0.0-6.0-0.15","","7y6o5fz2aa","2","1605121115395","","","","",""
"1284.7150000017136","<p class='stimulus'>You will be going tomorrow</p>","74","html-keyboard-response","176","1344713","0.0-6.0-1.15","","7y6o5fz2aa","2","1605121115395","gram","2","254","true",""
"null","<svg width=""40"" height=""40""><circle             cx=""20"" cy=""20"" r=""20"" fill=""green"" /></svg>","null","html-keyboard-response","177","1346727","0.0-6.0-2.15","","7y6o5fz2aa","2","1605121115395","","","","",""
"null","<p class=""stimulus"">+</p>","null","html-keyboard-response","178","1347255","0.0-6.0-0.16","","7y6o5fz2aa","2","1605121115395","","","","",""
"1529.6049999888055","<p class='stimulus'>The time difference is important</p>","74","html-keyboard-response","179","1348785","0.0-6.0-1.16","","7y6o5fz2aa","2","1605121115395","gram","2","271","true",""
"null","<svg width=""40"" height=""40""><circle             cx=""20"" cy=""20"" r=""20"" fill=""green"" /></svg>","null","html-keyboard-response","180","1350800","0.0-6.0-2.16","","7y6o5fz2aa","2","1605121115395","","","","",""
"null","<p class=""stimulus"">+</p>","null","html-keyboard-response","181","1351342","0.0-6.0-0.17","","7y6o5fz2aa","2","1605121115395","","","","",""
"1437.0599999963306","<p class='stimulus'>We see some dark clouds</p>","74","html-keyboard-response","182","1352780","0.0-6.0-1.17","","7y6o5fz2aa","2","1605121115395","gram","2","313","true",""
"null","<svg width=""40"" height=""40""><circle             cx=""20"" cy=""20"" r=""20"" fill=""green"" /></svg>","null","html-keyboard-response","183","1354792","0.0-6.0-2.17","","7y6o5fz2aa","2","1605121115395","","","","",""
"null","<p class=""stimulus"">+</p>","null","html-keyboard-response","184","1355319","0.0-6.0-0.18","","7y6o5fz2aa","2","1605121115395","","","","",""
"1491.7599999897648","<p class='stimulus'>Our shiny is ball themselves</p>","70","html-keyboard-response","185","1356811","0.0-6.0-1.18","","7y6o5fz2aa","2","1605121115395","control","2","193","true",""
"null","<svg width=""40"" height=""40""><circle             cx=""20"" cy=""20"" r=""20"" fill=""green"" /></svg>","null","html-keyboard-response","186","1358826","0.0-6.0-2.18","","7y6o5fz2aa","2","1605121115395","","","","",""
"null","<p class=""stimulus"">+</p>","null","html-keyboard-response","187","1359352","0.0-6.0-0.19","","7y6o5fz2aa","2","1605121115395","","","","",""
"1384.8250000011176","<p class='stimulus'>This magnificent will valley salad</p>","70","html-keyboard-response","188","1360738","0.0-6.0-1.19","","7y6o5fz2aa","2","1605121115395","control","2","190","true",""
"null","<svg width=""40"" height=""40""><circle             cx=""20"" cy=""20"" r=""20"" fill=""green"" /></svg>","null","html-keyboard-response","189","1362750","0.0-6.0-2.19","","7y6o5fz2aa","2","1605121115395","","","","",""
"null","<p class=""stimulus"">+</p>","null","html-keyboard-response","190","1363280","0.0-6.0-0.20","","7y6o5fz2aa","2","1605121115395","","","","",""
"1937.2250000014901","<p class='stimulus'>He picks ripe up tomatoes</p>","70","html-keyboard-response","191","1365218","0.0-6.0-1.20","","7y6o5fz2aa","2","1605121115395","transword","2","230","true",""
"null","<svg width=""40"" height=""40""><circle             cx=""20"" cy=""20"" r=""20"" fill=""green"" /></svg>","null","html-keyboard-response","192","1367222","0.0-6.0-2.20","","7y6o5fz2aa","2","1605121115395","","","","",""
"null","<p class=""stimulus"">+</p>","null","html-keyboard-response","193","1367750","0.0-6.0-0.21","","7y6o5fz2aa","2","1605121115395","","","","",""
"1084.9599999929778","<p class='stimulus'>The gray eat mice sings</p>","70","html-keyboard-response","194","1368835","0.0-6.0-1.21","","7y6o5fz2aa","2","1605121115395","control","2","174","true",""
"null","<svg width=""40"" height=""40""><circle             cx=""20"" cy=""20"" r=""20"" fill=""green"" /></svg>","null","html-keyboard-response","195","1370840","0.0-6.0-2.21","","7y6o5fz2aa","2","1605121115395","","","","",""
"null","<p class=""stimulus"">+</p>","null","html-keyboard-response","196","1371377","0.0-6.0-0.22","","7y6o5fz2aa","2","1605121115395","","","","",""
"1545.589999994263","<p class='stimulus'>Here is the right key</p>","74","html-keyboard-response","197","1372923","0.0-6.0-1.22","","7y6o5fz2aa","2","1605121115395","gram","2","294","true",""
"null","<svg width=""40"" height=""40""><circle             cx=""20"" cy=""20"" r=""20"" fill=""green"" /></svg>","null","html-keyboard-response","198","1374932","0.0-6.0-2.22","","7y6o5fz2aa","2","1605121115395","","","","",""
"null","<p class=""stimulus"">+</p>","null","html-keyboard-response","199","1375459","0.0-6.0-0.23","","7y6o5fz2aa","2","1605121115395","","","","",""
"2341.945000007516","<p class='stimulus'>You bought fried some fish</p>","74","html-keyboard-response","200","1377801","0.0-6.0-1.23","","7y6o5fz2aa","2","1605121115395","transword","2","211","false",""
"null","<svg width=""40"" height=""40""><circle             cx=""20"" cy=""20"" r=""20"" fill=""red"" /></svg>","null","html-keyboard-response","201","1379812","0.0-6.0-2.23","","7y6o5fz2aa","2","1605121115395","","","","",""
"null","<p class=""stimulus"">+</p>","null","html-keyboard-response","202","1380339","0.0-6.0-0.24","","7y6o5fz2aa","2","1605121115395","","","","",""
"1683.2149999975227","<p class='stimulus'>The lonely bird raven everything</p>","70","html-keyboard-response","203","1382022","0.0-6.0-1.24","","7y6o5fz2aa","2","1605121115395","control","2","173","true",""
"null","<svg width=""40"" height=""40""><circle             cx=""20"" cy=""20"" r=""20"" fill=""green"" /></svg>","null","html-keyboard-response","204","1384033","0.0-6.0-2.24","","7y6o5fz2aa","2","1605121115395","","","","",""
"null","<p class=""stimulus"">+</p>","null","html-keyboard-response","205","1384560","0.0-6.0-0.25","","7y6o5fz2aa","2","1605121115395","","","","",""
"1941.3600000115111","<p class='stimulus'>Their large balls round everything</p>","70","html-keyboard-response","206","1386502","0.0-6.0-1.25","","7y6o5fz2aa","2","1605121115395","control","2","171","true",""
"null","<svg width=""40"" height=""40""><circle             cx=""20"" cy=""20"" r=""20"" fill=""green"" /></svg>","null","html-keyboard-response","207","1388517","0.0-6.0-2.25","","7y6o5fz2aa","2","1605121115395","","","","",""
"null","<p class=""stimulus"">+</p>","null","html-keyboard-response","208","1389053","0.0-6.0-0.26","","7y6o5fz2aa","2","1605121115395","","","","",""
"1228.5049999917392","<p class='stimulus'>He wants some salty fries</p>","74","html-keyboard-response","209","1390282","0.0-6.0-1.26","","7y6o5fz2aa","2","1605121115395","gram","2","293","true",""
"null","<svg width=""40"" height=""40""><circle             cx=""20"" cy=""20"" r=""20"" fill=""green"" /></svg>","null","html-keyboard-response","210","1392293","0.0-6.0-2.26","","7y6o5fz2aa","2","1605121115395","","","","",""
"null","<p class=""stimulus"">+</p>","null","html-keyboard-response","211","1392833","0.0-6.0-0.27","","7y6o5fz2aa","2","1605121115395","","","","",""
"1297.6999999955297","<p class='stimulus'>My friend to likes dance</p>","74","html-keyboard-response","212","1394131","0.0-6.0-1.27","","7y6o5fz2aa","2","1605121115395","transword","2","234","false",""
"null","<svg width=""40"" height=""40""><circle             cx=""20"" cy=""20"" r=""20"" fill=""red"" /></svg>","null","html-keyboard-response","213","1396136","0.0-6.0-2.27","","7y6o5fz2aa","2","1605121115395","","","","",""
"null","<p class=""stimulus"">+</p>","null","html-keyboard-response","214","1396669","0.0-6.0-0.28","","7y6o5fz2aa","2","1605121115395","","","","",""
"1898.52499999688","<p class='stimulus'>Your two are nephews thirsty</p>","70","html-keyboard-response","215","1398568","0.0-6.0-1.28","","7y6o5fz2aa","2","1605121115395","transword","2","231","true",""
"null","<svg width=""40"" height=""40""><circle             cx=""20"" cy=""20"" r=""20"" fill=""green"" /></svg>","null","html-keyboard-response","216","1400574","0.0-6.0-2.28","","7y6o5fz2aa","2","1605121115395","","","","",""
"null","<p class=""stimulus"">+</p>","null","html-keyboard-response","217","1401114","0.0-6.0-0.29","","7y6o5fz2aa","2","1605121115395","","","","",""
"1638.2149999991525","<p class='stimulus'>We want to you go</p>","70","html-keyboard-response","218","1402753","0.0-6.0-1.29","","7y6o5fz2aa","2","1605121115395","transword","2","232","true",""
"null","<svg width=""40"" height=""40""><circle             cx=""20"" cy=""20"" r=""20"" fill=""green"" /></svg>","null","html-keyboard-response","219","1404759","0.0-6.0-2.29","","7y6o5fz2aa","2","1605121115395","","","","",""
"null","<p class=""stimulus"">+</p>","null","html-keyboard-response","220","1405285","0.0-6.0-0.30","","7y6o5fz2aa","2","1605121115395","","","","",""
"1196.2050000000745","<p class='stimulus'>The monkey is caged up</p>","74","html-keyboard-response","221","1406482","0.0-6.0-1.30","","7y6o5fz2aa","2","1605121115395","gram","2","272","true",""
"null","<svg width=""40"" height=""40""><circle             cx=""20"" cy=""20"" r=""20"" fill=""green"" /></svg>","null","html-keyboard-response","222","1408495","0.0-6.0-2.30","","7y6o5fz2aa","2","1605121115395","","","","",""
"null","<p class=""stimulus"">+</p>","null","html-keyboard-response","223","1409036","0.0-6.0-0.31","","7y6o5fz2aa","2","1605121115395","","","","",""
"1201.8299999907613","<p class='stimulus'>You are just too afraid</p>","74","html-keyboard-response","224","1410238","0.0-6.0-1.31","","7y6o5fz2aa","2","1605121115395","gram","2","253","true",""
"null","<svg width=""40"" height=""40""><circle             cx=""20"" cy=""20"" r=""20"" fill=""green"" /></svg>","null","html-keyboard-response","225","1412246","0.0-6.0-2.31","","7y6o5fz2aa","2","1605121115395","","","","",""
"null","<p class=""stimulus"">+</p>","null","html-keyboard-response","226","1412785","0.0-6.0-0.32","","7y6o5fz2aa","2","1605121115395","","","","",""
"1525.3000000086613","<p class='stimulus'>He does not know everything</p>","74","html-keyboard-response","227","1414311","0.0-6.0-1.32","","7y6o5fz2aa","2","1605121115395","gram","2","251","true",""
"null","<svg width=""40"" height=""40""><circle             cx=""20"" cy=""20"" r=""20"" fill=""green"" /></svg>","null","html-keyboard-response","228","1416316","0.0-6.0-2.32","","7y6o5fz2aa","2","1605121115395","","","","",""
"null","<p class=""stimulus"">+</p>","null","html-keyboard-response","229","1416847","0.0-6.0-0.33","","7y6o5fz2aa","2","1605121115395","","","","",""
"1267.1549999939743","<p class='stimulus'>Your elderly wants uncle fell</p>","70","html-keyboard-response","230","1418115","0.0-6.0-1.33","","7y6o5fz2aa","2","1605121115395","control","2","172","true",""
"null","<svg width=""40"" height=""40""><circle             cx=""20"" cy=""20"" r=""20"" fill=""green"" /></svg>","null","html-keyboard-response","231","1420125","0.0-6.0-2.33","","7y6o5fz2aa","2","1605121115395","","","","",""
"null","<p class=""stimulus"">+</p>","null","html-keyboard-response","232","1420666","0.0-6.0-0.34","","7y6o5fz2aa","2","1605121115395","","","","",""
"2444.9949999980163","<p class='stimulus'>Those salads are sold out</p>","74","html-keyboard-response","233","1423111","0.0-6.0-1.34","","7y6o5fz2aa","2","1605121115395","gram","2","290","true",""
"null","<svg width=""40"" height=""40""><circle             cx=""20"" cy=""20"" r=""20"" fill=""green"" /></svg>","null","html-keyboard-response","234","1425127","0.0-6.0-2.34","","7y6o5fz2aa","2","1605121115395","","","","",""
"null","<p class=""stimulus"">+</p>","null","html-keyboard-response","235","1425655","0.0-6.0-0.35","","7y6o5fz2aa","2","1605121115395","","","","",""
"1296.4549999886658","<p class='stimulus'>She wants to learn everything</p>","74","html-keyboard-response","236","1426952","0.0-6.0-1.35","","7y6o5fz2aa","2","1605121115395","gram","2","270","true",""
"null","<svg width=""40"" height=""40""><circle             cx=""20"" cy=""20"" r=""20"" fill=""green"" /></svg>","null","html-keyboard-response","237","1428965","0.0-6.0-2.35","","7y6o5fz2aa","2","1605121115395","","","","",""
"null","<p class=""stimulus"">+</p>","null","html-keyboard-response","238","1429492","0.0-6.0-0.36","","7y6o5fz2aa","2","1605121115395","","","","",""
"1047.2200000076555","<p class='stimulus'>He will dig a hole</p>","74","html-keyboard-response","239","1430540","0.0-6.0-1.36","","7y6o5fz2aa","2","1605121115395","gram","2","310","true",""
"null","<svg width=""40"" height=""40""><circle             cx=""20"" cy=""20"" r=""20"" fill=""green"" /></svg>","null","html-keyboard-response","240","1432544","0.0-6.0-2.36","","7y6o5fz2aa","2","1605121115395","","","","",""
"null","<p class=""stimulus"">+</p>","null","html-keyboard-response","241","1433077","0.0-6.0-0.37","","7y6o5fz2aa","2","1605121115395","","","","",""
"1041.1149999999907","<p class='stimulus'>She often thinks of you</p>","74","html-keyboard-response","242","1434119","0.0-6.0-1.37","","7y6o5fz2aa","2","1605121115395","gram","2","292","true",""
"null","<svg width=""40"" height=""40""><circle             cx=""20"" cy=""20"" r=""20"" fill=""green"" /></svg>","null","html-keyboard-response","243","1436132","0.0-6.0-2.37","","7y6o5fz2aa","2","1605121115395","","","","",""
"null","<p class=""stimulus"">+</p>","null","html-keyboard-response","244","1436660","0.0-6.0-0.38","","7y6o5fz2aa","2","1605121115395","","","","",""
"1049.0799999970477","<p class='stimulus'>His grand are uncles walk</p>","70","html-keyboard-response","245","1437709","0.0-6.0-1.38","","7y6o5fz2aa","2","1605121115395","control","2","192","true",""
"null","<svg width=""40"" height=""40""><circle             cx=""20"" cy=""20"" r=""20"" fill=""green"" /></svg>","null","html-keyboard-response","246","1439716","0.0-6.0-2.38","","7y6o5fz2aa","2","1605121115395","","","","",""
"null","<p class=""stimulus"">+</p>","null","html-keyboard-response","247","1440243","0.0-6.0-0.39","","7y6o5fz2aa","2","1605121115395","","","","",""
"1406.474999996135","<p class='stimulus'>Our distant fell cousin sick</p>","70","html-keyboard-response","248","1441650","0.0-6.0-1.39","","7y6o5fz2aa","2","1605121115395","transword","2","210","true",""
"null","<svg width=""40"" height=""40""><circle             cx=""20"" cy=""20"" r=""20"" fill=""green"" /></svg>","null","html-keyboard-response","249","1443655","0.0-6.0-2.39","","7y6o5fz2aa","2","1605121115395","","","","",""
"2052.4250000016764","You have completed block 2 of 4. You can take a short pause before continuing; press spacebar when you are ready to continue.<br /><br />[Press spacebar to begin the next block.]","32","html-keyboard-response","250","1445708","0.0-7.0","","7y6o5fz2aa","2","1605121115395","","","","",""
"null","<p class=""stimulus"">+</p>","null","html-keyboard-response","251","1446374","0.0-8.0-0.0","","7y6o5fz2aa","2","1605121115395","","","","",""
"1930.9149999897927","<p class='stimulus'>She had butter on toast</p>","74","html-keyboard-response","252","1448306","0.0-8.0-1.0","","7y6o5fz2aa","2","1605121115395","gram","3","255","true",""
"null","<svg width=""40"" height=""40""><circle             cx=""20"" cy=""20"" r=""20"" fill=""green"" /></svg>","null","html-keyboard-response","253","1450321","0.0-8.0-2.0","","7y6o5fz2aa","2","1605121115395","","","","",""
"null","<p class=""stimulus"">+</p>","null","html-keyboard-response","254","1450994","0.0-8.0-0.1","","7y6o5fz2aa","2","1605121115395","","","","",""
"1057.7099999939092","<p class='stimulus'>He lies in the sand</p>","74","html-keyboard-response","255","1452053","0.0-8.0-1.1","","7y6o5fz2aa","2","1605121115395","gram","3","318","true",""
"null","<svg width=""40"" height=""40""><circle             cx=""20"" cy=""20"" r=""20"" fill=""green"" /></svg>","null","html-keyboard-response","256","1454064","0.0-8.0-2.1","","7y6o5fz2aa","2","1605121115395","","","","",""
"null","<p class=""stimulus"">+</p>","null","html-keyboard-response","257","1454731","0.0-8.0-0.2","","7y6o5fz2aa","2","1605121115395","","","","",""
"1597.6700000029523","<p class='stimulus'>Her rich father is anxious</p>","74","html-keyboard-response","258","1456329","0.0-8.0-1.2","","7y6o5fz2aa","2","1605121115395","gram","3","256","true",""
"null","<svg width=""40"" height=""40""><circle             cx=""20"" cy=""20"" r=""20"" fill=""green"" /></svg>","null","html-keyboard-response","259","1458337","0.0-8.0-2.2","","7y6o5fz2aa","2","1605121115395","","","","",""
"null","<p class=""stimulus"">+</p>","null","html-keyboard-response","260","1459016","0.0-8.0-0.3","","7y6o5fz2aa","2","1605121115395","","","","",""
"1322.8649999946356","<p class='stimulus'>The white runs cat talks</p>","70","html-keyboard-response","261","1460339","0.0-8.0-1.3","","7y6o5fz2aa","2","1605121115395","control","3","178","true",""
"null","<svg width=""40"" height=""40""><circle             cx=""20"" cy=""20"" r=""20"" fill=""green"" /></svg>","null","html-keyboard-response","262","1462353","0.0-8.0-2.3","","7y6o5fz2aa","2","1605121115395","","","","",""
"null","<p class=""stimulus"">+</p>","null","html-keyboard-response","263","1463030","0.0-8.0-0.4","","7y6o5fz2aa","2","1605121115395","","","","",""
"1147.6600000022445","<p class='stimulus'>This tall is mug broken</p>","70","html-keyboard-response","264","1464178","0.0-8.0-1.4","","7y6o5fz2aa","2","1605121115395","transword","3","217","true",""
"null","<svg width=""40"" height=""40""><circle             cx=""20"" cy=""20"" r=""20"" fill=""green"" /></svg>","null","html-keyboard-response","265","1466194","0.0-8.0-2.4","","7y6o5fz2aa","2","1605121115395","","","","",""
"null","<p class=""stimulus"">+</p>","null","html-keyboard-response","266","1466869","0.0-8.0-0.5","","7y6o5fz2aa","2","1605121115395","","","","",""
"1656.1300000031479","<p class='stimulus'>Your flat became roof dirty</p>","70","html-keyboard-response","267","1468526","0.0-8.0-1.5","","7y6o5fz2aa","2","1605121115395","transword","3","237","true",""
"null","<svg width=""40"" height=""40""><circle             cx=""20"" cy=""20"" r=""20"" fill=""green"" /></svg>","null","html-keyboard-response","268","1470530","0.0-8.0-2.5","","7y6o5fz2aa","2","1605121115395","","","","",""
"null","<p class=""stimulus"">+</p>","null","html-keyboard-response","269","1471198","0.0-8.0-0.6","","7y6o5fz2aa","2","1605121115395","","","","",""
"1251.879999996163","<p class='stimulus'>You know about it now</p>","74","html-keyboard-response","270","1472451","0.0-8.0-1.6","","7y6o5fz2aa","2","1605121115395","gram","3","296","true",""
"null","<svg width=""40"" height=""40""><circle             cx=""20"" cy=""20"" r=""20"" fill=""green"" /></svg>","null","html-keyboard-response","271","1474458","0.0-8.0-2.6","","7y6o5fz2aa","2","1605121115395","","","","",""
"null","<p class=""stimulus"">+</p>","null","html-keyboard-response","272","1475135","0.0-8.0-0.7","","7y6o5fz2aa","2","1605121115395","","","","",""
"2210.440000009956","<p class='stimulus'>They love punctual the flights</p>","70","html-keyboard-response","273","1477346","0.0-8.0-1.7","","7y6o5fz2aa","2","1605121115395","transword","3","218","true",""
"null","<svg width=""40"" height=""40""><circle             cx=""20"" cy=""20"" r=""20"" fill=""green"" /></svg>","null","html-keyboard-response","274","1479352","0.0-8.0-2.7","","7y6o5fz2aa","2","1605121115395","","","","",""
"null","<p class=""stimulus"">+</p>","null","html-keyboard-response","275","1480026","0.0-8.0-0.8","","7y6o5fz2aa","2","1605121115395","","","","",""
"2217.4650000086986","<p class='stimulus'>He accidentally scratched the cat</p>","74","html-keyboard-response","276","1482244","0.0-8.0-1.8","","7y6o5fz2aa","2","1605121115395","gram","3","299","true",""
"null","<svg width=""40"" height=""40""><circle             cx=""20"" cy=""20"" r=""20"" fill=""green"" /></svg>","null","html-keyboard-response","277","1484252","0.0-8.0-2.8","","7y6o5fz2aa","2","1605121115395","","","","",""
"null","<p class=""stimulus"">+</p>","null","html-keyboard-response","278","1484917","0.0-8.0-0.9","","7y6o5fz2aa","2","1605121115395","","","","",""
"1497.6800000004005","<p class='stimulus'>His small drinks hamster fight</p>","70","html-keyboard-response","279","1486415","0.0-8.0-1.9","","7y6o5fz2aa","2","1605121115395","control","3","198","true",""
"null","<svg width=""40"" height=""40""><circle             cx=""20"" cy=""20"" r=""20"" fill=""green"" /></svg>","null","html-keyboard-response","280","1488417","0.0-8.0-2.9","","7y6o5fz2aa","2","1605121115395","","","","",""
"null","<p class=""stimulus"">+</p>","null","html-keyboard-response","281","1489086","0.0-8.0-0.10","","7y6o5fz2aa","2","1605121115395","","","","",""
"1162.7749999898952","<p class='stimulus'>She will lend me money</p>","74","html-keyboard-response","282","1490250","0.0-8.0-1.10","","7y6o5fz2aa","2","1605121115395","gram","3","316","true",""
"null","<svg width=""40"" height=""40""><circle             cx=""20"" cy=""20"" r=""20"" fill=""green"" /></svg>","null","html-keyboard-response","283","1492262","0.0-8.0-2.10","","7y6o5fz2aa","2","1605121115395","","","","",""
"null","<p class=""stimulus"">+</p>","null","html-keyboard-response","284","1492940","0.0-8.0-0.11","","7y6o5fz2aa","2","1605121115395","","","","",""
"1387.3050000113435","<p class='stimulus'>This kind of thing happens</p>","74","html-keyboard-response","285","1494328","0.0-8.0-1.11","","7y6o5fz2aa","2","1605121115395","gram","3","279","true",""
"null","<svg width=""40"" height=""40""><circle             cx=""20"" cy=""20"" r=""20"" fill=""green"" /></svg>","null","html-keyboard-response","286","1496332","0.0-8.0-2.11","","7y6o5fz2aa","2","1605121115395","","","","",""
"null","<p class=""stimulus"">+</p>","null","html-keyboard-response","287","1497006","0.0-8.0-0.12","","7y6o5fz2aa","2","1605121115395","","","","",""
"1164.479999992298","<p class='stimulus'>The leaves drop during fall</p>","74","html-keyboard-response","288","1498171","0.0-8.0-1.12","","7y6o5fz2aa","2","1605121115395","gram","3","298","true",""
"null","<svg width=""40"" height=""40""><circle             cx=""20"" cy=""20"" r=""20"" fill=""green"" /></svg>","null","html-keyboard-response","289","1500181","0.0-8.0-2.12","","7y6o5fz2aa","2","1605121115395","","","","",""
"null","<p class=""stimulus"">+</p>","null","html-keyboard-response","290","1500849","0.0-8.0-0.13","","7y6o5fz2aa","2","1605121115395","","","","",""
"1393.754999997327","<p class='stimulus'>They carve a large stone</p>","74","html-keyboard-response","291","1502243","0.0-8.0-1.13","","7y6o5fz2aa","2","1605121115395","gram","3","257","true",""
"null","<svg width=""40"" height=""40""><circle             cx=""20"" cy=""20"" r=""20"" fill=""green"" /></svg>","null","html-keyboard-response","292","1504246","0.0-8.0-2.13","","7y6o5fz2aa","2","1605121115395","","","","",""
"null","<p class=""stimulus"">+</p>","null","html-keyboard-response","293","1504911","0.0-8.0-0.14","","7y6o5fz2aa","2","1605121115395","","","","",""
"1635.5499999918975","<p class='stimulus'>The deer is leaping about</p>","74","html-keyboard-response","294","1506547","0.0-8.0-1.14","","7y6o5fz2aa","2","1605121115395","gram","3","258","true",""
"null","<svg width=""40"" height=""40""><circle             cx=""20"" cy=""20"" r=""20"" fill=""green"" /></svg>","null","html-keyboard-response","295","1508549","0.0-8.0-2.14","","7y6o5fz2aa","2","1605121115395","","","","",""
"null","<p class=""stimulus"">+</p>","null","html-keyboard-response","296","1509216","0.0-8.0-0.15","","7y6o5fz2aa","2","1605121115395","","","","",""
"1762.8350000013597","<p class='stimulus'>We hope can you dive</p>","70","html-keyboard-response","297","1510980","0.0-8.0-1.15","","7y6o5fz2aa","2","1605121115395","transword","3","216","true",""
"null","<svg width=""40"" height=""40""><circle             cx=""20"" cy=""20"" r=""20"" fill=""green"" /></svg>","null","html-keyboard-response","298","1512986","0.0-8.0-2.15","","7y6o5fz2aa","2","1605121115395","","","","",""
"null","<p class=""stimulus"">+</p>","null","html-keyboard-response","299","1513660","0.0-8.0-0.16","","7y6o5fz2aa","2","1605121115395","","","","",""
"2653.649999992922","<p class='stimulus'>Your sharp turned nose red</p>","70","html-keyboard-response","300","1516314","0.0-8.0-1.16","","7y6o5fz2aa","2","1605121115395","transword","3","235","true",""
"null","<svg width=""40"" height=""40""><circle             cx=""20"" cy=""20"" r=""20"" fill=""green"" /></svg>","null","html-keyboard-response","301","1518331","0.0-8.0-2.16","","7y6o5fz2aa","2","1605121115395","","","","",""
"null","<p class=""stimulus"">+</p>","null","html-keyboard-response","302","1519007","0.0-8.0-0.17","","7y6o5fz2aa","2","1605121115395","","","","",""
"1595.4900000069756","<p class='stimulus'>Your little bird red strongly</p>","70","html-keyboard-response","303","1520603","0.0-8.0-1.17","","7y6o5fz2aa","2","1605121115395","control","3","175","true",""
"null","<svg width=""40"" height=""40""><circle             cx=""20"" cy=""20"" r=""20"" fill=""green"" /></svg>","null","html-keyboard-response","304","1522610","0.0-8.0-2.17","","7y6o5fz2aa","2","1605121115395","","","","",""
"null","<p class=""stimulus"">+</p>","null","html-keyboard-response","305","1523288","0.0-8.0-0.18","","7y6o5fz2aa","2","1605121115395","","","","",""
"1763.785000002943","<p class='stimulus'>Your ugly parrot white away</p>","70","html-keyboard-response","306","1525053","0.0-8.0-1.18","","7y6o5fz2aa","2","1605121115395","control","3","177","true",""
"null","<svg width=""40"" height=""40""><circle             cx=""20"" cy=""20"" r=""20"" fill=""green"" /></svg>","null","html-keyboard-response","307","1527055","0.0-8.0-2.18","","7y6o5fz2aa","2","1605121115395","","","","",""
"null","<p class=""stimulus"">+</p>","null","html-keyboard-response","308","1527719","0.0-8.0-0.19","","7y6o5fz2aa","2","1605121115395","","","","",""
"1664.8999999889638","<p class='stimulus'>His closed got door stuck</p>","70","html-keyboard-response","309","1529385","0.0-8.0-1.19","","7y6o5fz2aa","2","1605121115395","transword","3","219","true",""
"null","<svg width=""40"" height=""40""><circle             cx=""20"" cy=""20"" r=""20"" fill=""green"" /></svg>","null","html-keyboard-response","310","1531400","0.0-8.0-2.19","","7y6o5fz2aa","2","1605121115395","","","","",""
"null","<p class=""stimulus"">+</p>","null","html-keyboard-response","311","1532071","0.0-8.0-0.20","","7y6o5fz2aa","2","1605121115395","","","","",""
"1709.9000000015367","<p class='stimulus'>The rose has prickly thorns</p>","74","html-keyboard-response","312","1533782","0.0-8.0-1.20","","7y6o5fz2aa","2","1605121115395","gram","3","295","true",""
"null","<svg width=""40"" height=""40""><circle             cx=""20"" cy=""20"" r=""20"" fill=""green"" /></svg>","null","html-keyboard-response","313","1535785","0.0-8.0-2.20","","7y6o5fz2aa","2","1605121115395","","","","",""
"null","<p class=""stimulus"">+</p>","null","html-keyboard-response","314","1536449","0.0-8.0-0.21","","7y6o5fz2aa","2","1605121115395","","","","",""
"1433.8149999966845","<p class='stimulus'>His orange often hens quickly</p>","70","html-keyboard-response","315","1537884","0.0-8.0-1.21","","7y6o5fz2aa","2","1605121115395","control","3","197","true",""
"null","<svg width=""40"" height=""40""><circle             cx=""20"" cy=""20"" r=""20"" fill=""green"" /></svg>","null","html-keyboard-response","316","1539896","0.0-8.0-2.21","","7y6o5fz2aa","2","1605121115395","","","","",""
"null","<p class=""stimulus"">+</p>","null","html-keyboard-response","317","1540561","0.0-8.0-0.22","","7y6o5fz2aa","2","1605121115395","","","","",""
"2008.4950000019744","<p class='stimulus'>The new mirror long slowly</p>","70","html-keyboard-response","318","1542570","0.0-8.0-1.22","","7y6o5fz2aa","2","1605121115395","control","3","179","true",""
"null","<svg width=""40"" height=""40""><circle             cx=""20"" cy=""20"" r=""20"" fill=""green"" /></svg>","null","html-keyboard-response","319","1544573","0.0-8.0-2.22","","7y6o5fz2aa","2","1605121115395","","","","",""
"null","<p class=""stimulus"">+</p>","null","html-keyboard-response","320","1545251","0.0-8.0-0.23","","7y6o5fz2aa","2","1605121115395","","","","",""
"1359.1099999900907","<p class='stimulus'>The black play dogs apples</p>","70","html-keyboard-response","321","1546610","0.0-8.0-1.23","","7y6o5fz2aa","2","1605121115395","control","3","196","true",""
"null","<svg width=""40"" height=""40""><circle             cx=""20"" cy=""20"" r=""20"" fill=""green"" /></svg>","null","html-keyboard-response","322","1548622","0.0-8.0-2.23","","7y6o5fz2aa","2","1605121115395","","","","",""
"null","<p class=""stimulus"">+</p>","null","html-keyboard-response","323","1549298","0.0-8.0-0.24","","7y6o5fz2aa","2","1605121115395","","","","",""
"1342.7100000116043","<p class='stimulus'>She asks for some dessert</p>","74","html-keyboard-response","324","1550642","0.0-8.0-1.24","","7y6o5fz2aa","2","1605121115395","gram","3","319","true",""
"null","<svg width=""40"" height=""40""><circle             cx=""20"" cy=""20"" r=""20"" fill=""green"" /></svg>","null","html-keyboard-response","325","1552657","0.0-8.0-2.24","","7y6o5fz2aa","2","1605121115395","","","","",""
"null","<p class=""stimulus"">+</p>","null","html-keyboard-response","326","1553336","0.0-8.0-0.25","","7y6o5fz2aa","2","1605121115395","","","","",""
"1621.66000000434","<p class='stimulus'>They scratched the winning tickets</p>","74","html-keyboard-response","327","1554959","0.0-8.0-1.25","","7y6o5fz2aa","2","1605121115395","gram","3","315","true",""
"null","<svg width=""40"" height=""40""><circle             cx=""20"" cy=""20"" r=""20"" fill=""green"" /></svg>","null","html-keyboard-response","328","1556960","0.0-8.0-2.25","","7y6o5fz2aa","2","1605121115395","","","","",""
"null","<p class=""stimulus"">+</p>","null","html-keyboard-response","329","1557630","0.0-8.0-0.26","","7y6o5fz2aa","2","1605121115395","","","","",""
"1465.8649999909103","<p class='stimulus'>That guy will not come</p>","70","html-keyboard-response","330","1559097","0.0-8.0-1.26","","7y6o5fz2aa","2","1605121115395","gram","3","277","false",""
"null","<svg width=""40"" height=""40""><circle             cx=""20"" cy=""20"" r=""20"" fill=""red"" /></svg>","null","html-keyboard-response","331","1561104","0.0-8.0-2.26","","7y6o5fz2aa","2","1605121115395","","","","",""
"null","<p class=""stimulus"">+</p>","null","html-keyboard-response","332","1561777","0.0-8.0-0.27","","7y6o5fz2aa","2","1605121115395","","","","",""
"1180.5449999955017","<p class='stimulus'>This friendly was woman drunk</p>","70","html-keyboard-response","333","1562958","0.0-8.0-1.27","","7y6o5fz2aa","2","1605121115395","transword","3","239","true",""
"null","<svg width=""40"" height=""40""><circle             cx=""20"" cy=""20"" r=""20"" fill=""green"" /></svg>","null","html-keyboard-response","334","1564965","0.0-8.0-2.27","","7y6o5fz2aa","2","1605121115395","","","","",""
"null","<p class=""stimulus"">+</p>","null","html-keyboard-response","335","1565637","0.0-8.0-0.28","","7y6o5fz2aa","2","1605121115395","","","","",""
"1616.3050000034273","<p class='stimulus'>The others are very kind</p>","74","html-keyboard-response","336","1567254","0.0-8.0-1.28","","7y6o5fz2aa","2","1605121115395","gram","3","275","true",""
"null","<svg width=""40"" height=""40""><circle             cx=""20"" cy=""20"" r=""20"" fill=""green"" /></svg>","null","html-keyboard-response","337","1569259","0.0-8.0-2.28","","7y6o5fz2aa","2","1605121115395","","","","",""
"null","<p class=""stimulus"">+</p>","null","html-keyboard-response","338","1569923","0.0-8.0-0.29","","7y6o5fz2aa","2","1605121115395","","","","",""
"1354.460000002291","<p class='stimulus'>He would green like nearby</p>","70","html-keyboard-response","339","1571278","0.0-8.0-1.29","","7y6o5fz2aa","2","1605121115395","control","3","195","true",""
"null","<svg width=""40"" height=""40""><circle             cx=""20"" cy=""20"" r=""20"" fill=""green"" /></svg>","null","html-keyboard-response","340","1573284","0.0-8.0-2.29","","7y6o5fz2aa","2","1605121115395","","","","",""
"null","<p class=""stimulus"">+</p>","null","html-keyboard-response","341","1573959","0.0-8.0-0.30","","7y6o5fz2aa","2","1605121115395","","","","",""
"1847.5049999977928","<p class='stimulus'>You came after the meal</p>","74","html-keyboard-response","342","1575807","0.0-8.0-1.30","","7y6o5fz2aa","2","1605121115395","gram","3","297","true",""
"null","<svg width=""40"" height=""40""><circle             cx=""20"" cy=""20"" r=""20"" fill=""green"" /></svg>","null","html-keyboard-response","343","1577815","0.0-8.0-2.30","","7y6o5fz2aa","2","1605121115395","","","","",""
"null","<p class=""stimulus"">+</p>","null","html-keyboard-response","344","1578479","0.0-8.0-0.31","","7y6o5fz2aa","2","1605121115395","","","","",""
"1020.0400000032969","<p class='stimulus'>I sleep my in bed</p>","74","html-keyboard-response","345","1579500","0.0-8.0-1.31","","7y6o5fz2aa","2","1605121115395","transword","3","236","false",""
"null","<svg width=""40"" height=""40""><circle             cx=""20"" cy=""20"" r=""20"" fill=""red"" /></svg>","null","html-keyboard-response","346","1581503","0.0-8.0-2.31","","7y6o5fz2aa","2","1605121115395","","","","",""
"null","<p class=""stimulus"">+</p>","null","html-keyboard-response","347","1582182","0.0-8.0-0.32","","7y6o5fz2aa","2","1605121115395","","","","",""
"1329.5099999958184","<p class='stimulus'>That swan is rather lovely</p>","74","html-keyboard-response","348","1583513","0.0-8.0-1.32","","7y6o5fz2aa","2","1605121115395","gram","3","276","true",""
"null","<svg width=""40"" height=""40""><circle             cx=""20"" cy=""20"" r=""20"" fill=""green"" /></svg>","null","html-keyboard-response","349","1585525","0.0-8.0-2.32","","7y6o5fz2aa","2","1605121115395","","","","",""
"null","<p class=""stimulus"">+</p>","null","html-keyboard-response","350","1586196","0.0-8.0-0.33","","7y6o5fz2aa","2","1605121115395","","","","",""
"1270.3200000105426","<p class='stimulus'>A large bites mouse sleeps</p>","70","html-keyboard-response","351","1587467","0.0-8.0-1.33","","7y6o5fz2aa","2","1605121115395","control","3","176","true",""
"null","<svg width=""40"" height=""40""><circle             cx=""20"" cy=""20"" r=""20"" fill=""green"" /></svg>","null","html-keyboard-response","352","1589480","0.0-8.0-2.33","","7y6o5fz2aa","2","1605121115395","","","","",""
"null","<p class=""stimulus"">+</p>","null","html-keyboard-response","353","1590145","0.0-8.0-0.34","","7y6o5fz2aa","2","1605121115395","","","","",""
"1671.784999998752","<p class='stimulus'>Their small was kitten hungry</p>","70","html-keyboard-response","354","1591818","0.0-8.0-1.34","","7y6o5fz2aa","2","1605121115395","transword","3","215","true",""
"null","<svg width=""40"" height=""40""><circle             cx=""20"" cy=""20"" r=""20"" fill=""green"" /></svg>","null","html-keyboard-response","355","1593825","0.0-8.0-2.34","","7y6o5fz2aa","2","1605121115395","","","","",""
"null","<p class=""stimulus"">+</p>","null","html-keyboard-response","356","1594503","0.0-8.0-0.35","","7y6o5fz2aa","2","1605121115395","","","","",""
"1326.7800000030547","<p class='stimulus'>He takes a morning nap</p>","74","html-keyboard-response","357","1595830","0.0-8.0-1.35","","7y6o5fz2aa","2","1605121115395","gram","3","278","true",""
"null","<svg width=""40"" height=""40""><circle             cx=""20"" cy=""20"" r=""20"" fill=""green"" /></svg>","null","html-keyboard-response","358","1597846","0.0-8.0-2.35","","7y6o5fz2aa","2","1605121115395","","","","",""
"null","<p class=""stimulus"">+</p>","null","html-keyboard-response","359","1598520","0.0-8.0-0.36","","7y6o5fz2aa","2","1605121115395","","","","",""
"1634.2749999894295","<p class='stimulus'>You did not change it</p>","74","html-keyboard-response","360","1600155","0.0-8.0-1.36","","7y6o5fz2aa","2","1605121115395","gram","3","259","true",""
"null","<svg width=""40"" height=""40""><circle             cx=""20"" cy=""20"" r=""20"" fill=""green"" /></svg>","null","html-keyboard-response","361","1602172","0.0-8.0-2.36","","7y6o5fz2aa","2","1605121115395","","","","",""
"null","<p class=""stimulus"">+</p>","null","html-keyboard-response","362","1602848","0.0-8.0-0.37","","7y6o5fz2aa","2","1605121115395","","","","",""
"1571.6800000083167","<p class='stimulus'>You like the green beans</p>","74","html-keyboard-response","363","1604421","0.0-8.0-1.37","","7y6o5fz2aa","2","1605121115395","gram","3","317","true",""
"null","<svg width=""40"" height=""40""><circle             cx=""20"" cy=""20"" r=""20"" fill=""green"" /></svg>","null","html-keyboard-response","364","1606432","0.0-8.0-2.37","","7y6o5fz2aa","2","1605121115395","","","","",""
"null","<p class=""stimulus"">+</p>","null","html-keyboard-response","365","1607097","0.0-8.0-0.38","","7y6o5fz2aa","2","1605121115395","","","","",""
"1598.20500000217","<p class='stimulus'>They will to talk you</p>","74","html-keyboard-response","366","1608696","0.0-8.0-1.38","","7y6o5fz2aa","2","1605121115395","transword","3","238","false",""
"null","<svg width=""40"" height=""40""><circle             cx=""20"" cy=""20"" r=""20"" fill=""red"" /></svg>","null","html-keyboard-response","367","1610706","0.0-8.0-2.38","","7y6o5fz2aa","2","1605121115395","","","","",""
"null","<p class=""stimulus"">+</p>","null","html-keyboard-response","368","1611371","0.0-8.0-0.39","","7y6o5fz2aa","2","1605121115395","","","","",""
"1834.0699999970384","<p class='stimulus'>Your older suddenly brother soon</p>","70","html-keyboard-response","369","1613206","0.0-8.0-1.39","","7y6o5fz2aa","2","1605121115395","control","3","199","true",""
"null","<svg width=""40"" height=""40""><circle             cx=""20"" cy=""20"" r=""20"" fill=""green"" /></svg>","null","html-keyboard-response","370","1615221","0.0-8.0-2.39","","7y6o5fz2aa","2","1605121115395","","","","",""
"2226.699999999255","You have completed block 3 of 4. You can take a short pause before continuing; press spacebar when you are ready to continue.<br /><br />[Press spacebar to begin the next block.]","32","html-keyboard-response","371","1617449","0.0-9.0","","7y6o5fz2aa","2","1605121115395","","","","",""
"null","<p class=""stimulus"">+</p>","null","html-keyboard-response","372","1618033","0.0-10.0-0.0","","7y6o5fz2aa","2","1605121115395","","","","",""
"1100.6049999995157","<p class='stimulus'>They sold all three cars</p>","74","html-keyboard-response","373","1619135","0.0-10.0-1.0","","7y6o5fz2aa","2","1605121115395","gram","4","300","true",""
"null","<svg width=""40"" height=""40""><circle             cx=""20"" cy=""20"" r=""20"" fill=""green"" /></svg>","null","html-keyboard-response","374","1621147","0.0-10.0-2.0","","7y6o5fz2aa","2","1605121115395","","","","",""
"null","<p class=""stimulus"">+</p>","null","html-keyboard-response","375","1621732","0.0-10.0-0.1","","7y6o5fz2aa","2","1605121115395","","","","",""
"1366.1199999917299","<p class='stimulus'>Their cute swims duck shines</p>","70","html-keyboard-response","376","1623099","0.0-10.0-1.1","","7y6o5fz2aa","2","1605121115395","control","4","180","true",""
"null","<svg width=""40"" height=""40""><circle             cx=""20"" cy=""20"" r=""20"" fill=""green"" /></svg>","null","html-keyboard-response","377","1625114","0.0-10.0-2.1","","7y6o5fz2aa","2","1605121115395","","","","",""
"null","<p class=""stimulus"">+</p>","null","html-keyboard-response","378","1625692","0.0-10.0-0.2","","7y6o5fz2aa","2","1605121115395","","","","",""
"1488.1400000012945","<p class='stimulus'>Her old cooks aunt yawned</p>","70","html-keyboard-response","379","1627181","0.0-10.0-1.2","","7y6o5fz2aa","2","1605121115395","control","4","202","true",""
"null","<svg width=""40"" height=""40""><circle             cx=""20"" cy=""20"" r=""20"" fill=""green"" /></svg>","null","html-keyboard-response","380","1629189","0.0-10.0-2.2","","7y6o5fz2aa","2","1605121115395","","","","",""
"null","<p class=""stimulus"">+</p>","null","html-keyboard-response","381","1629775","0.0-10.0-0.3","","7y6o5fz2aa","2","1605121115395","","","","",""
"1010.804999998305","<p class='stimulus'>He is aware of it</p>","74","html-keyboard-response","382","1630786","0.0-10.0-1.3","","7y6o5fz2aa","2","1605121115395","gram","4","323","true",""
"null","<svg width=""40"" height=""40""><circle             cx=""20"" cy=""20"" r=""20"" fill=""green"" /></svg>","null","html-keyboard-response","383","1632790","0.0-10.0-2.3","","7y6o5fz2aa","2","1605121115395","","","","",""
"null","<p class=""stimulus"">+</p>","null","html-keyboard-response","384","1633361","0.0-10.0-0.4","","7y6o5fz2aa","2","1605121115395","","","","",""
"1186.0700000105426","<p class='stimulus'>You are on a bus</p>","74","html-keyboard-response","385","1634548","0.0-10.0-1.4","","7y6o5fz2aa","2","1605121115395","gram","4","322","true",""
"null","<svg width=""40"" height=""40""><circle             cx=""20"" cy=""20"" r=""20"" fill=""green"" /></svg>","null","html-keyboard-response","386","1636555","0.0-10.0-2.4","","7y6o5fz2aa","2","1605121115395","","","","",""
"null","<p class=""stimulus"">+</p>","null","html-keyboard-response","387","1637126","0.0-10.0-0.5","","7y6o5fz2aa","2","1605121115395","","","","",""
"1213.2649999987334","<p class='stimulus'>The next finally train arrived</p>","70","html-keyboard-response","388","1638341","0.0-10.0-1.5","","7y6o5fz2aa","2","1605121115395","transword","4","244","true",""
"null","<svg width=""40"" height=""40""><circle             cx=""20"" cy=""20"" r=""20"" fill=""green"" /></svg>","null","html-keyboard-response","389","1640346","0.0-10.0-2.5","","7y6o5fz2aa","2","1605121115395","","","","",""
"null","<p class=""stimulus"">+</p>","null","html-keyboard-response","390","1640928","0.0-10.0-0.6","","7y6o5fz2aa","2","1605121115395","","","","",""
"1871.6749999874737","<p class='stimulus'>He likes having sweet coffee</p>","74","html-keyboard-response","391","1642800","0.0-10.0-1.6","","7y6o5fz2aa","2","1605121115395","gram","4","264","true",""
"null","<svg width=""40"" height=""40""><circle             cx=""20"" cy=""20"" r=""20"" fill=""green"" /></svg>","null","html-keyboard-response","392","1644805","0.0-10.0-2.6","","7y6o5fz2aa","2","1605121115395","","","","",""
"null","<p class=""stimulus"">+</p>","null","html-keyboard-response","393","1645383","0.0-10.0-0.7","","7y6o5fz2aa","2","1605121115395","","","","",""
"1714.2599999932572","<p class='stimulus'>The hardworking rooster arrives early</p>","74","html-keyboard-response","394","1647098","0.0-10.0-1.7","","7y6o5fz2aa","2","1605121115395","gram","4","283","true",""
"null","<svg width=""40"" height=""40""><circle             cx=""20"" cy=""20"" r=""20"" fill=""green"" /></svg>","null","html-keyboard-response","395","1649112","0.0-10.0-2.7","","7y6o5fz2aa","2","1605121115395","","","","",""
"null","<p class=""stimulus"">+</p>","null","html-keyboard-response","396","1649694","0.0-10.0-0.8","","7y6o5fz2aa","2","1605121115395","","","","",""
"1287.8250000067055","<p class='stimulus'>My two are siblings succeeds</p>","70","html-keyboard-response","397","1650982","0.0-10.0-1.8","","7y6o5fz2aa","2","1605121115395","control","4","204","true",""
"null","<svg width=""40"" height=""40""><circle             cx=""20"" cy=""20"" r=""20"" fill=""green"" /></svg>","null","html-keyboard-response","398","1652985","0.0-10.0-2.8","","7y6o5fz2aa","2","1605121115395","","","","",""
"null","<p class=""stimulus"">+</p>","null","html-keyboard-response","399","1653567","0.0-10.0-0.9","","7y6o5fz2aa","2","1605121115395","","","","",""
"1591.1350000097882","<p class='stimulus'>This wonderful park is round</p>","70","html-keyboard-response","400","1655159","0.0-10.0-1.9","","7y6o5fz2aa","2","1605121115395","gram","4","282","false",""
"null","<svg width=""40"" height=""40""><circle             cx=""20"" cy=""20"" r=""20"" fill=""red"" /></svg>","null","html-keyboard-response","401","1657172","0.0-10.0-2.9","","7y6o5fz2aa","2","1605121115395","","","","",""
"null","<p class=""stimulus"">+</p>","null","html-keyboard-response","402","1657754","0.0-10.0-0.10","","7y6o5fz2aa","2","1605121115395","","","","",""
"1489.2350000010338","<p class='stimulus'>That sad is news unfortunate</p>","70","html-keyboard-response","403","1659244","0.0-10.0-1.10","","7y6o5fz2aa","2","1605121115395","transword","4","221","true",""
"null","<svg width=""40"" height=""40""><circle             cx=""20"" cy=""20"" r=""20"" fill=""green"" /></svg>","null","html-keyboard-response","404","1661247","0.0-10.0-2.10","","7y6o5fz2aa","2","1605121115395","","","","",""
"null","<p class=""stimulus"">+</p>","null","html-keyboard-response","405","1661833","0.0-10.0-0.11","","7y6o5fz2aa","2","1605121115395","","","","",""
"1023.1399999901187","<p class='stimulus'>I prefer not to speak</p>","74","html-keyboard-response","406","1662857","0.0-10.0-1.11","","7y6o5fz2aa","2","1605121115395","gram","4","263","true",""
"null","<svg width=""40"" height=""40""><circle             cx=""20"" cy=""20"" r=""20"" fill=""green"" /></svg>","null","html-keyboard-response","407","1664862","0.0-10.0-2.11","","7y6o5fz2aa","2","1605121115395","","","","",""
"null","<p class=""stimulus"">+</p>","null","html-keyboard-response","408","1665440","0.0-10.0-0.12","","7y6o5fz2aa","2","1605121115395","","","","",""
"1087.045000007376","<p class='stimulus'>Her step leaves mother jumped</p>","70","html-keyboard-response","409","1666527","0.0-10.0-1.12","","7y6o5fz2aa","2","1605121115395","control","4","200","true",""
"null","<svg width=""40"" height=""40""><circle             cx=""20"" cy=""20"" r=""20"" fill=""green"" /></svg>","null","html-keyboard-response","410","1668533","0.0-10.0-2.12","","7y6o5fz2aa","2","1605121115395","","","","",""
"null","<p class=""stimulus"">+</p>","null","html-keyboard-response","411","1669104","0.0-10.0-0.13","","7y6o5fz2aa","2","1605121115395","","","","",""
"1168.2699999946635","<p class='stimulus'>The next person is blond</p>","74","html-keyboard-response","412","1670273","0.0-10.0-1.13","","7y6o5fz2aa","2","1605121115395","gram","4","284","true",""
"null","<svg width=""40"" height=""40""><circle             cx=""20"" cy=""20"" r=""20"" fill=""green"" /></svg>","null","html-keyboard-response","413","1672283","0.0-10.0-2.13","","7y6o5fz2aa","2","1605121115395","","","","",""
"null","<p class=""stimulus"">+</p>","null","html-keyboard-response","414","1672865","0.0-10.0-0.14","","7y6o5fz2aa","2","1605121115395","","","","",""
"2586.5199999972247","<p class='stimulus'>It will quite rain soon</p>","70","html-keyboard-response","415","1675453","0.0-10.0-1.14","","7y6o5fz2aa","2","1605121115395","transword","4","220","true",""
"null","<svg width=""40"" height=""40""><circle             cx=""20"" cy=""20"" r=""20"" fill=""green"" /></svg>","null","html-keyboard-response","416","1677462","0.0-10.0-2.14","","7y6o5fz2aa","2","1605121115395","","","","",""
"null","<p class=""stimulus"">+</p>","null","html-keyboard-response","417","1678044","0.0-10.0-0.15","","7y6o5fz2aa","2","1605121115395","","","","",""
"1571.8500000075437","<p class='stimulus'>His beard looks quite good</p>","74","html-keyboard-response","418","1679617","0.0-10.0-1.15","","7y6o5fz2aa","2","1605121115395","gram","4","303","true",""
"null","<svg width=""40"" height=""40""><circle             cx=""20"" cy=""20"" r=""20"" fill=""green"" /></svg>","null","html-keyboard-response","419","1681631","0.0-10.0-2.15","","7y6o5fz2aa","2","1605121115395","","","","",""
"null","<p class=""stimulus"">+</p>","null","html-keyboard-response","420","1682202","0.0-10.0-0.16","","7y6o5fz2aa","2","1605121115395","","","","",""
"1215.639999995008","<p class='stimulus'>That chicken is laying eggs</p>","74","html-keyboard-response","421","1683419","0.0-10.0-1.16","","7y6o5fz2aa","2","1605121115395","gram","4","262","true",""
"null","<svg width=""40"" height=""40""><circle             cx=""20"" cy=""20"" r=""20"" fill=""green"" /></svg>","null","html-keyboard-response","422","1685424","0.0-10.0-2.16","","7y6o5fz2aa","2","1605121115395","","","","",""
"null","<p class=""stimulus"">+</p>","null","html-keyboard-response","423","1686003","0.0-10.0-0.17","","7y6o5fz2aa","2","1605121115395","","","","",""
"1306.7200000078883","<p class='stimulus'>My crazy leaves aunt snapped</p>","70","html-keyboard-response","424","1687311","0.0-10.0-1.17","","7y6o5fz2aa","2","1605121115395","control","4","182","true",""
"null","<svg width=""40"" height=""40""><circle             cx=""20"" cy=""20"" r=""20"" fill=""green"" /></svg>","null","html-keyboard-response","425","1689321","0.0-10.0-2.17","","7y6o5fz2aa","2","1605121115395","","","","",""
"null","<p class=""stimulus"">+</p>","null","html-keyboard-response","426","1689892","0.0-10.0-0.18","","7y6o5fz2aa","2","1605121115395","","","","",""
"2017.070000001695","<p class='stimulus'>We buy whole grain cereal</p>","74","html-keyboard-response","427","1691910","0.0-10.0-1.18","","7y6o5fz2aa","2","1605121115395","gram","4","304","true",""
"null","<svg width=""40"" height=""40""><circle             cx=""20"" cy=""20"" r=""20"" fill=""green"" /></svg>","null","html-keyboard-response","428","1693918","0.0-10.0-2.18","","7y6o5fz2aa","2","1605121115395","","","","",""
"null","<p class=""stimulus"">+</p>","null","html-keyboard-response","429","1694501","0.0-10.0-0.19","","7y6o5fz2aa","2","1605121115395","","","","",""
"1676.6249999927823","<p class='stimulus'>They need go to nothing</p>","70","html-keyboard-response","430","1696178","0.0-10.0-1.19","","7y6o5fz2aa","2","1605121115395","control","4","184","true",""
"null","<svg width=""40"" height=""40""><circle             cx=""20"" cy=""20"" r=""20"" fill=""green"" /></svg>","null","html-keyboard-response","431","1698201","0.0-10.0-2.19","","7y6o5fz2aa","2","1605121115395","","","","",""
"null","<p class=""stimulus"">+</p>","null","html-keyboard-response","432","1698773","0.0-10.0-0.20","","7y6o5fz2aa","2","1605121115395","","","","",""
"1801.9950000017416","<p class='stimulus'>Those ladies a laugh lot</p>","70","html-keyboard-response","433","1700575","0.0-10.0-1.20","","7y6o5fz2aa","2","1605121115395","transword","4","240","true",""
"null","<svg width=""40"" height=""40""><circle             cx=""20"" cy=""20"" r=""20"" fill=""green"" /></svg>","null","html-keyboard-response","434","1702580","0.0-10.0-2.20","","7y6o5fz2aa","2","1605121115395","","","","",""
"null","<p class=""stimulus"">+</p>","null","html-keyboard-response","435","1703152","0.0-10.0-0.21","","7y6o5fz2aa","2","1605121115395","","","","",""
"1418.1950000056531","<p class='stimulus'>We arrived at our destination</p>","74","html-keyboard-response","436","1704571","0.0-10.0-1.21","","7y6o5fz2aa","2","1605121115395","gram","4","321","true",""
"null","<svg width=""40"" height=""40""><circle             cx=""20"" cy=""20"" r=""20"" fill=""green"" /></svg>","null","html-keyboard-response","437","1706578","0.0-10.0-2.21","","7y6o5fz2aa","2","1605121115395","","","","",""
"null","<p class=""stimulus"">+</p>","null","html-keyboard-response","438","1707149","0.0-10.0-0.22","","7y6o5fz2aa","2","1605121115395","","","","",""
"1867.415000000503","<p class='stimulus'>The silly knows boy back</p>","70","html-keyboard-response","439","1709019","0.0-10.0-1.22","","7y6o5fz2aa","2","1605121115395","control","4","183","true",""
"null","<svg width=""40"" height=""40""><circle             cx=""20"" cy=""20"" r=""20"" fill=""green"" /></svg>","null","html-keyboard-response","440","1711028","0.0-10.0-2.22","","7y6o5fz2aa","2","1605121115395","","","","",""
"null","<p class=""stimulus"">+</p>","null","html-keyboard-response","441","1711599","0.0-10.0-0.23","","7y6o5fz2aa","2","1605121115395","","","","",""
"2225.5949999962468","<p class='stimulus'>You have inform to us</p>","70","html-keyboard-response","442","1713826","0.0-10.0-1.23","","7y6o5fz2aa","2","1605121115395","transword","4","242","true",""
"null","<svg width=""40"" height=""40""><circle             cx=""20"" cy=""20"" r=""20"" fill=""green"" /></svg>","null","html-keyboard-response","443","1715833","0.0-10.0-2.23","","7y6o5fz2aa","2","1605121115395","","","","",""
"null","<p class=""stimulus"">+</p>","null","html-keyboard-response","444","1716405","0.0-10.0-0.24","","7y6o5fz2aa","2","1605121115395","","","","",""
"1377.04999999539","<p class='stimulus'>This grizzly bear is hunting</p>","74","html-keyboard-response","445","1717783","0.0-10.0-1.24","","7y6o5fz2aa","2","1605121115395","gram","4","261","true",""
"null","<svg width=""40"" height=""40""><circle             cx=""20"" cy=""20"" r=""20"" fill=""green"" /></svg>","null","html-keyboard-response","446","1719796","0.0-10.0-2.24","","7y6o5fz2aa","2","1605121115395","","","","",""
"null","<p class=""stimulus"">+</p>","null","html-keyboard-response","447","1720367","0.0-10.0-0.25","","7y6o5fz2aa","2","1605121115395","","","","",""
"1672.8599999914877","<p class='stimulus'>Their sheep all sleeps day</p>","70","html-keyboard-response","448","1722041","0.0-10.0-1.25","","7y6o5fz2aa","2","1605121115395","transword","4","222","true",""
"null","<svg width=""40"" height=""40""><circle             cx=""20"" cy=""20"" r=""20"" fill=""green"" /></svg>","null","html-keyboard-response","449","1724054","0.0-10.0-2.25","","7y6o5fz2aa","2","1605121115395","","","","",""
"null","<p class=""stimulus"">+</p>","null","html-keyboard-response","450","1724625","0.0-10.0-0.26","","7y6o5fz2aa","2","1605121115395","","","","",""
"1082.2900000056252","<p class='stimulus'>He received a few gifts</p>","74","html-keyboard-response","451","1725708","0.0-10.0-1.26","","7y6o5fz2aa","2","1605121115395","gram","4","280","true",""
"null","<svg width=""40"" height=""40""><circle             cx=""20"" cy=""20"" r=""20"" fill=""green"" /></svg>","null","html-keyboard-response","452","1727724","0.0-10.0-2.26","","7y6o5fz2aa","2","1605121115395","","","","",""
"null","<p class=""stimulus"">+</p>","null","html-keyboard-response","453","1728303","0.0-10.0-0.27","","7y6o5fz2aa","2","1605121115395","","","","",""
"1611.6599999950267","<p class='stimulus'>We boiled all these potatoes</p>","74","html-keyboard-response","454","1729915","0.0-10.0-1.27","","7y6o5fz2aa","2","1605121115395","gram","4","324","true",""
"null","<svg width=""40"" height=""40""><circle             cx=""20"" cy=""20"" r=""20"" fill=""green"" /></svg>","null","html-keyboard-response","455","1731919","0.0-10.0-2.27","","7y6o5fz2aa","2","1605121115395","","","","",""
"null","<p class=""stimulus"">+</p>","null","html-keyboard-response","456","1732490","0.0-10.0-0.28","","7y6o5fz2aa","2","1605121115395","","","","",""
"1154.735000003595","<p class='stimulus'>She really enjoys the summer</p>","74","html-keyboard-response","457","1733645","0.0-10.0-1.28","","7y6o5fz2aa","2","1605121115395","gram","4","281","true",""
"null","<svg width=""40"" height=""40""><circle             cx=""20"" cy=""20"" r=""20"" fill=""green"" /></svg>","null","html-keyboard-response","458","1735661","0.0-10.0-2.28","","7y6o5fz2aa","2","1605121115395","","","","",""
"null","<p class=""stimulus"">+</p>","null","html-keyboard-response","459","1736243","0.0-10.0-0.29","","7y6o5fz2aa","2","1605121115395","","","","",""
"1117.1099999919534","<p class='stimulus'>Our tired already baby well</p>","70","html-keyboard-response","460","1737360","0.0-10.0-1.29","","7y6o5fz2aa","2","1605121115395","control","4","201","true",""
"null","<svg width=""40"" height=""40""><circle             cx=""20"" cy=""20"" r=""20"" fill=""green"" /></svg>","null","html-keyboard-response","461","1739370","0.0-10.0-2.29","","7y6o5fz2aa","2","1605121115395","","","","",""
"null","<p class=""stimulus"">+</p>","null","html-keyboard-response","462","1739949","0.0-10.0-0.30","","7y6o5fz2aa","2","1605121115395","","","","",""
"1977.924999999348","<p class='stimulus'>These dirty are walls sturdy</p>","70","html-keyboard-response","463","1741927","0.0-10.0-1.30","","7y6o5fz2aa","2","1605121115395","transword","4","223","true",""
"null","<svg width=""40"" height=""40""><circle             cx=""20"" cy=""20"" r=""20"" fill=""green"" /></svg>","null","html-keyboard-response","464","1743936","0.0-10.0-2.30","","7y6o5fz2aa","2","1605121115395","","","","",""
"null","<p class=""stimulus"">+</p>","null","html-keyboard-response","465","1744506","0.0-10.0-0.31","","7y6o5fz2aa","2","1605121115395","","","","",""
"1622.8350000020582","<p class='stimulus'>My wool is sweater expensive</p>","70","html-keyboard-response","466","1746130","0.0-10.0-1.31","","7y6o5fz2aa","2","1605121115395","transword","4","241","true",""
"null","<svg width=""40"" height=""40""><circle             cx=""20"" cy=""20"" r=""20"" fill=""green"" /></svg>","null","html-keyboard-response","467","1748136","0.0-10.0-2.31","","7y6o5fz2aa","2","1605121115395","","","","",""
"null","<p class=""stimulus"">+</p>","null","html-keyboard-response","468","1748707","0.0-10.0-0.32","","7y6o5fz2aa","2","1605121115395","","","","",""
"2381.189999999944","<p class='stimulus'>The great nearly lady talking</p>","74","html-keyboard-response","469","1751089","0.0-10.0-1.32","","7y6o5fz2aa","2","1605121115395","control","4","203","false",""
"null","<svg width=""40"" height=""40""><circle             cx=""20"" cy=""20"" r=""20"" fill=""red"" /></svg>","null","html-keyboard-response","470","1753089","0.0-10.0-2.32","","7y6o5fz2aa","2","1605121115395","","","","",""
"null","<p class=""stimulus"">+</p>","null","html-keyboard-response","471","1753663","0.0-10.0-0.33","","7y6o5fz2aa","2","1605121115395","","","","",""
"2284.274999998044","<p class='stimulus'>Your big bag blue tomorrow</p>","70","html-keyboard-response","472","1755948","0.0-10.0-1.33","","7y6o5fz2aa","2","1605121115395","control","4","181","true",""
"null","<svg width=""40"" height=""40""><circle             cx=""20"" cy=""20"" r=""20"" fill=""green"" /></svg>","null","html-keyboard-response","473","1757963","0.0-10.0-2.33","","7y6o5fz2aa","2","1605121115395","","","","",""
"null","<p class=""stimulus"">+</p>","null","html-keyboard-response","474","1758535","0.0-10.0-0.34","","7y6o5fz2aa","2","1605121115395","","","","",""
"1980.5749999941327","<p class='stimulus'>They would like to rest</p>","74","html-keyboard-response","475","1760516","0.0-10.0-1.34","","7y6o5fz2aa","2","1605121115395","gram","4","302","true",""
"null","<svg width=""40"" height=""40""><circle             cx=""20"" cy=""20"" r=""20"" fill=""green"" /></svg>","null","html-keyboard-response","476","1762531","0.0-10.0-2.34","","7y6o5fz2aa","2","1605121115395","","","","",""
"null","<p class=""stimulus"">+</p>","null","html-keyboard-response","477","1763103","0.0-10.0-0.35","","7y6o5fz2aa","2","1605121115395","","","","",""
"1488.5099999955855","<p class='stimulus'>She felt sleepy earlier today</p>","74","html-keyboard-response","478","1764592","0.0-10.0-1.35","","7y6o5fz2aa","2","1605121115395","gram","4","301","true",""
"null","<svg width=""40"" height=""40""><circle             cx=""20"" cy=""20"" r=""20"" fill=""green"" /></svg>","null","html-keyboard-response","479","1766597","0.0-10.0-2.35","","7y6o5fz2aa","2","1605121115395","","","","",""
"null","<p class=""stimulus"">+</p>","null","html-keyboard-response","480","1767168","0.0-10.0-0.36","","7y6o5fz2aa","2","1605121115395","","","","",""
"1711.5049999994226","<p class='stimulus'>I think ate you it</p>","70","html-keyboard-response","481","1768881","0.0-10.0-1.36","","7y6o5fz2aa","2","1605121115395","transword","4","243","true",""
"null","<svg width=""40"" height=""40""><circle             cx=""20"" cy=""20"" r=""20"" fill=""green"" /></svg>","null","html-keyboard-response","482","1770890","0.0-10.0-2.36","","7y6o5fz2aa","2","1605121115395","","","","",""
"null","<p class=""stimulus"">+</p>","null","html-keyboard-response","483","1771461","0.0-10.0-0.37","","7y6o5fz2aa","2","1605121115395","","","","",""
"1334.7599999979138","<p class='stimulus'>I stopped on the road</p>","74","html-keyboard-response","484","1772796","0.0-10.0-1.37","","7y6o5fz2aa","2","1605121115395","gram","4","320","true",""
"null","<svg width=""40"" height=""40""><circle             cx=""20"" cy=""20"" r=""20"" fill=""green"" /></svg>","null","html-keyboard-response","485","1774802","0.0-10.0-2.37","","7y6o5fz2aa","2","1605121115395","","","","",""
"null","<p class=""stimulus"">+</p>","null","html-keyboard-response","486","1775373","0.0-10.0-0.38","","7y6o5fz2aa","2","1605121115395","","","","",""
"1184.764999998035","<p class='stimulus'>Her son so eats much</p>","70","html-keyboard-response","487","1776559","0.0-10.0-1.38","","7y6o5fz2aa","2","1605121115395","transword","4","224","true",""
"null","<svg width=""40"" height=""40""><circle             cx=""20"" cy=""20"" r=""20"" fill=""green"" /></svg>","null","html-keyboard-response","488","1778572","0.0-10.0-2.38","","7y6o5fz2aa","2","1605121115395","","","","",""
"null","<p class=""stimulus"">+</p>","null","html-keyboard-response","489","1779144","0.0-10.0-0.39","","7y6o5fz2aa","2","1605121115395","","","","",""
"1142.1249999983702","<p class='stimulus'>She would want some shoes</p>","74","html-keyboard-response","490","1780287","0.0-10.0-1.39","","7y6o5fz2aa","2","1605121115395","gram","4","260","true",""
"null","<svg width=""40"" height=""40""><circle             cx=""20"" cy=""20"" r=""20"" fill=""green"" /></svg>","null","html-keyboard-response","491","1782298","0.0-10.0-2.39","","7y6o5fz2aa","2","1605121115395","","","","",""
"6836.809999993537","","","survey-html-form","492","1789137","0.0-11.0","","7y6o5fz2aa","2","1605121115395","","","","","{""age"":""39"",""gender"":""female""}"
