"rt","stimulus","key_press","trial_type","trial_index","time_elapsed","internal_node_id","participant","uid","list","timestamp","condition","block","item_no","correct","responses"
"81070.1700001955","By answering the following questions, you are participating in a study being performed by cognitive scientists in the Stanford Department of Psychology. If you have questions about this research, please contact us at <a href=""mailto:stanfordpsych251@gmail.com""> stanfordpsych251@gmail.com</a>. You must be at least 18 years old to participate, and you must be a native English speaker and have normal or corrected-to-normal vision. Your participation in this research is voluntary. You may decline to answer any or all of the following questions. You may decline further participation, at any time, without adverse consequences. Your anonymity is assured; the researchers who have requested your participation will not receive any personal information about you. We have recently been made aware that your public Amazon.com profile can be accessed via your worker ID if you do not choose to opt out. If you would like to opt out of this feature, you may follow instructions available <a href=""http://www.amazon.com/gp/help/customer/display.html?nodeId=16465241"">here</a>. <br /><br />[Press spacebar to continue.]","32","html-keyboard-response","0","81086","0.0-0.0","","kr39sfwrcl","1","1605128727596","","","","",""
"79402.1149999462","Each screen will show a sequence of five English words, which either form a grammatical English sentence (e.g. ""The cow eats the grass"") or an ungrammatical sequence (e.g. ""Planet orange a the mention""). Decide as rapidly and as accurately as possible if the sequence of words forms a grammatically correct sentence or not. Press the 'J' key with your right index finger if the sequence is grammatical, and press the 'F' key with your left index finger if the sequence is ungrammatical. A colored dot will then appear, indicating whether your response was correct (green) or incorrect (red).<br /><br />There will be two practice sequences, followed by four blocks of test sequences. Please sit about 60cm away from your screen, and display the task in full screen. This HIT takes around 10 minutes to complete; please complete it in one sitting. <br /><br />[Press spacebar to begin the practice.]","32","html-keyboard-response","1","160497","0.0-1.0","","kr39sfwrcl","1","1605128727596","","","","",""
"null","<p class=""stimulus"">+</p>","null","html-keyboard-response","2","161058","0.0-2.0-0.0","","kr39sfwrcl","1","1605128727596","","","","",""
"1930.625000037253","<p class='stimulus'>The white was cat big</p>","70","html-keyboard-response","3","162997","0.0-2.0-1.0","","kr39sfwrcl","1","1605128727596","transword","0","1","true",""
"null","<svg width=""40"" height=""40""><circle             cx=""20"" cy=""20"" r=""20"" fill=""green"" /></svg>","null","html-keyboard-response","4","165004","0.0-2.0-2.0","","kr39sfwrcl","1","1605128727596","","","","",""
"null","<p class=""stimulus"">+</p>","null","html-keyboard-response","5","165563","0.0-2.0-0.1","","kr39sfwrcl","1","1605128727596","","","","",""
"1638.525000307709","<p class='stimulus'>It moved over there slowly</p>","74","html-keyboard-response","6","167205","0.0-2.0-1.1","","kr39sfwrcl","1","1605128727596","gram","0","2","true",""
"null","<svg width=""40"" height=""40""><circle             cx=""20"" cy=""20"" r=""20"" fill=""green"" /></svg>","null","html-keyboard-response","7","169213","0.0-2.0-2.1","","kr39sfwrcl","1","1605128727596","","","","",""
"13318.995000328869","You have completed the practice. You will now begin the experiment proper, which is composed of four blocks of sequences.<br /><br />[Press spacebar to begin the experiment.]","32","html-keyboard-response","8","182536","0.0-3.0","","kr39sfwrcl","1","1605128727596","","","","",""
"null","<p class=""stimulus"">+</p>","null","html-keyboard-response","9","183196","0.0-4.0-0.0","","kr39sfwrcl","1","1605128727596","","","","",""
"1885.5500002391636","<p class='stimulus'>There is a public holiday</p>","74","html-keyboard-response","10","185089","0.0-4.0-1.0","","kr39sfwrcl","1","1605128727596","gram","1","123","true",""
"null","<svg width=""40"" height=""40""><circle             cx=""20"" cy=""20"" r=""20"" fill=""green"" /></svg>","null","html-keyboard-response","11","187094","0.0-4.0-2.0","","kr39sfwrcl","1","1605128727596","","","","",""
"null","<p class=""stimulus"">+</p>","null","html-keyboard-response","12","187754","0.0-4.0-0.1","","kr39sfwrcl","1","1605128727596","","","","",""
"1896.0450002923608","<p class='stimulus'>His fine breaks pen easily</p>","70","html-keyboard-response","13","189655","0.0-4.0-1.1","","kr39sfwrcl","1","1605128727596","transword","1","26","true",""
"null","<svg width=""40"" height=""40""><circle             cx=""20"" cy=""20"" r=""20"" fill=""green"" /></svg>","null","html-keyboard-response","14","191658","0.0-4.0-2.1","","kr39sfwrcl","1","1605128727596","","","","",""
"null","<p class=""stimulus"">+</p>","null","html-keyboard-response","15","192317","0.0-4.0-0.2","","kr39sfwrcl","1","1605128727596","","","","",""
"1589.5700003020465","<p class='stimulus'>The iron will rust outside</p>","74","html-keyboard-response","16","193912","0.0-4.0-1.2","","kr39sfwrcl","1","1605128727596","gram","1","87","true",""
"null","<svg width=""40"" height=""40""><circle             cx=""20"" cy=""20"" r=""20"" fill=""green"" /></svg>","null","html-keyboard-response","17","195915","0.0-4.0-2.2","","kr39sfwrcl","1","1605128727596","","","","",""
"null","<p class=""stimulus"">+</p>","null","html-keyboard-response","18","196575","0.0-4.0-0.3","","kr39sfwrcl","1","1605128727596","","","","",""
"1594.439999666065","<p class='stimulus'>His nice friend best laughs</p>","70","html-keyboard-response","19","198174","0.0-4.0-1.3","","kr39sfwrcl","1","1605128727596","transword","1","7","true",""
"null","<svg width=""40"" height=""40""><circle             cx=""20"" cy=""20"" r=""20"" fill=""green"" /></svg>","null","html-keyboard-response","20","200178","0.0-4.0-2.3","","kr39sfwrcl","1","1605128727596","","","","",""
"null","<p class=""stimulus"">+</p>","null","html-keyboard-response","21","200837","0.0-4.0-0.4","","kr39sfwrcl","1","1605128727596","","","","",""
"1476.5400001779199","<p class='stimulus'>Our father many loves sick</p>","70","html-keyboard-response","22","202320","0.0-4.0-1.4","","kr39sfwrcl","1","1605128727596","control","1","47","true",""
"null","<svg width=""40"" height=""40""><circle             cx=""20"" cy=""20"" r=""20"" fill=""green"" /></svg>","null","html-keyboard-response","23","204324","0.0-4.0-2.4","","kr39sfwrcl","1","1605128727596","","","","",""
"null","<p class=""stimulus"">+</p>","null","html-keyboard-response","24","204983","0.0-4.0-0.5","","kr39sfwrcl","1","1605128727596","","","","",""
"1070.8949998952448","<p class='stimulus'>We wish to see you</p>","74","html-keyboard-response","25","206062","0.0-4.0-1.5","","kr39sfwrcl","1","1605128727596","gram","1","84","true",""
"null","<svg width=""40"" height=""40""><circle             cx=""20"" cy=""20"" r=""20"" fill=""green"" /></svg>","null","html-keyboard-response","26","208064","0.0-4.0-2.5","","kr39sfwrcl","1","1605128727596","","","","",""
"null","<p class=""stimulus"">+</p>","null","html-keyboard-response","27","208724","0.0-4.0-0.6","","kr39sfwrcl","1","1605128727596","","","","",""
"1691.845000255853","<p class='stimulus'>She threw out the flour</p>","74","html-keyboard-response","28","210422","0.0-4.0-1.6","","kr39sfwrcl","1","1605128727596","gram","1","83","true",""
"null","<svg width=""40"" height=""40""><circle             cx=""20"" cy=""20"" r=""20"" fill=""green"" /></svg>","null","html-keyboard-response","29","212425","0.0-4.0-2.6","","kr39sfwrcl","1","1605128727596","","","","",""
"null","<p class=""stimulus"">+</p>","null","html-keyboard-response","30","213084","0.0-4.0-0.7","","kr39sfwrcl","1","1605128727596","","","","",""
"2254.2699999175966","<p class='stimulus'>They have four children altogether</p>","74","html-keyboard-response","31","215347","0.0-4.0-1.7","","kr39sfwrcl","1","1605128727596","gram","1","144","true",""
"null","<svg width=""40"" height=""40""><circle             cx=""20"" cy=""20"" r=""20"" fill=""green"" /></svg>","null","html-keyboard-response","32","217350","0.0-4.0-2.7","","kr39sfwrcl","1","1605128727596","","","","",""
"null","<p class=""stimulus"">+</p>","null","html-keyboard-response","33","218008","0.0-4.0-0.8","","kr39sfwrcl","1","1605128727596","","","","",""
"2506.465000100434","<p class='stimulus'>We will for come cold</p>","70","html-keyboard-response","34","220516","0.0-4.0-1.8","","kr39sfwrcl","1","1605128727596","control","1","64","true",""
"null","<svg width=""40"" height=""40""><circle             cx=""20"" cy=""20"" r=""20"" fill=""green"" /></svg>","null","html-keyboard-response","35","222520","0.0-4.0-2.8","","kr39sfwrcl","1","1605128727596","","","","",""
"null","<p class=""stimulus"">+</p>","null","html-keyboard-response","36","223179","0.0-4.0-0.9","","kr39sfwrcl","1","1605128727596","","","","",""
"1803.7799997255206","<p class='stimulus'>She eats fruit a salad</p>","74","html-keyboard-response","37","224988","0.0-4.0-1.9","","kr39sfwrcl","1","1605128727596","transword","1","27","false",""
"null","<svg width=""40"" height=""40""><circle             cx=""20"" cy=""20"" r=""20"" fill=""red"" /></svg>","null","html-keyboard-response","38","226992","0.0-4.0-2.9","","kr39sfwrcl","1","1605128727596","","","","",""
"null","<p class=""stimulus"">+</p>","null","html-keyboard-response","39","227651","0.0-4.0-0.10","","kr39sfwrcl","1","1605128727596","","","","",""
"1243.9250000752509","<p class='stimulus'>The newspaper can be recycled</p>","74","html-keyboard-response","40","228901","0.0-4.0-1.10","","kr39sfwrcl","1","1605128727596","gram","1","146","true",""
"null","<svg width=""40"" height=""40""><circle             cx=""20"" cy=""20"" r=""20"" fill=""green"" /></svg>","null","html-keyboard-response","41","230908","0.0-4.0-2.10","","kr39sfwrcl","1","1605128727596","","","","",""
"null","<p class=""stimulus"">+</p>","null","html-keyboard-response","42","231569","0.0-4.0-0.11","","kr39sfwrcl","1","1605128727596","","","","",""
"1388.8899995945394","<p class='stimulus'>Her desk has rounded corners</p>","74","html-keyboard-response","43","232963","0.0-4.0-1.11","","kr39sfwrcl","1","1605128727596","gram","1","124","true",""
"null","<svg width=""40"" height=""40""><circle             cx=""20"" cy=""20"" r=""20"" fill=""green"" /></svg>","null","html-keyboard-response","44","234965","0.0-4.0-2.11","","kr39sfwrcl","1","1605128727596","","","","",""
"null","<p class=""stimulus"">+</p>","null","html-keyboard-response","45","235624","0.0-4.0-0.12","","kr39sfwrcl","1","1605128727596","","","","",""
"1095.6749999895692","<p class='stimulus'>Their door bell is ringing</p>","74","html-keyboard-response","46","236725","0.0-4.0-1.12","","kr39sfwrcl","1","1605128727596","gram","1","107","true",""
"null","<svg width=""40"" height=""40""><circle             cx=""20"" cy=""20"" r=""20"" fill=""green"" /></svg>","null","html-keyboard-response","47","238730","0.0-4.0-2.12","","kr39sfwrcl","1","1605128727596","","","","",""
"null","<p class=""stimulus"">+</p>","null","html-keyboard-response","48","239390","0.0-4.0-0.13","","kr39sfwrcl","1","1605128727596","","","","",""
"1579.1549999266863","<p class='stimulus'>The scared really children fast</p>","70","html-keyboard-response","49","240974","0.0-4.0-1.13","","kr39sfwrcl","1","1605128727596","control","1","45","true",""
"null","<svg width=""40"" height=""40""><circle             cx=""20"" cy=""20"" r=""20"" fill=""green"" /></svg>","null","html-keyboard-response","50","242979","0.0-4.0-2.13","","kr39sfwrcl","1","1605128727596","","","","",""
"null","<p class=""stimulus"">+</p>","null","html-keyboard-response","51","243639","0.0-4.0-0.14","","kr39sfwrcl","1","1605128727596","","","","",""
"996.6299999505281","<p class='stimulus'>The belt is too long</p>","74","html-keyboard-response","52","244642","0.0-4.0-1.14","","kr39sfwrcl","1","1605128727596","gram","1","147","true",""
"null","<svg width=""40"" height=""40""><circle             cx=""20"" cy=""20"" r=""20"" fill=""green"" /></svg>","null","html-keyboard-response","53","246646","0.0-4.0-2.14","","kr39sfwrcl","1","1605128727596","","","","",""
"null","<p class=""stimulus"">+</p>","null","html-keyboard-response","54","247306","0.0-4.0-0.15","","kr39sfwrcl","1","1605128727596","","","","",""
"1314.9500000290573","<p class='stimulus'>Her handsome is neighbor moving</p>","70","html-keyboard-response","55","248627","0.0-4.0-1.15","","kr39sfwrcl","1","1605128727596","transword","1","4","true",""
"null","<svg width=""40"" height=""40""><circle             cx=""20"" cy=""20"" r=""20"" fill=""green"" /></svg>","null","html-keyboard-response","56","250631","0.0-4.0-2.15","","kr39sfwrcl","1","1605128727596","","","","",""
"null","<p class=""stimulus"">+</p>","null","html-keyboard-response","57","251292","0.0-4.0-0.16","","kr39sfwrcl","1","1605128727596","","","","",""
"1596.3300000876188","<p class='stimulus'>Their dog very was tomatoes</p>","70","html-keyboard-response","58","252894","0.0-4.0-1.16","","kr39sfwrcl","1","1605128727596","control","1","67","true",""
"null","<svg width=""40"" height=""40""><circle             cx=""20"" cy=""20"" r=""20"" fill=""green"" /></svg>","null","html-keyboard-response","59","254900","0.0-4.0-2.16","","kr39sfwrcl","1","1605128727596","","","","",""
"null","<p class=""stimulus"">+</p>","null","html-keyboard-response","60","255566","0.0-4.0-0.17","","kr39sfwrcl","1","1605128727596","","","","",""
"1493.2200000621378","<p class='stimulus'>This is her second daughter</p>","74","html-keyboard-response","61","257065","0.0-4.0-1.17","","kr39sfwrcl","1","1605128727596","gram","1","145","true",""
"null","<svg width=""40"" height=""40""><circle             cx=""20"" cy=""20"" r=""20"" fill=""green"" /></svg>","null","html-keyboard-response","62","259070","0.0-4.0-2.17","","kr39sfwrcl","1","1605128727596","","","","",""
"null","<p class=""stimulus"">+</p>","null","html-keyboard-response","63","259728","0.0-4.0-0.18","","kr39sfwrcl","1","1605128727596","","","","",""
"1317.4149999395013","<p class='stimulus'>The young bounces girl eagerly</p>","70","html-keyboard-response","64","261052","0.0-4.0-1.18","","kr39sfwrcl","1","1605128727596","transword","1","6","true",""
"null","<svg width=""40"" height=""40""><circle             cx=""20"" cy=""20"" r=""20"" fill=""green"" /></svg>","null","html-keyboard-response","65","263056","0.0-4.0-2.18","","kr39sfwrcl","1","1605128727596","","","","",""
"null","<p class=""stimulus"">+</p>","null","html-keyboard-response","66","263716","0.0-4.0-0.19","","kr39sfwrcl","1","1605128727596","","","","",""
"1117.5999999977648","<p class='stimulus'>The famous is beach movie</p>","70","html-keyboard-response","67","264839","0.0-4.0-1.19","","kr39sfwrcl","1","1605128727596","control","1","66","true",""
"null","<svg width=""40"" height=""40""><circle             cx=""20"" cy=""20"" r=""20"" fill=""green"" /></svg>","null","html-keyboard-response","68","266844","0.0-4.0-2.19","","kr39sfwrcl","1","1605128727596","","","","",""
"null","<p class=""stimulus"">+</p>","null","html-keyboard-response","69","267521","0.0-4.0-0.20","","kr39sfwrcl","1","1605128727596","","","","",""
"1335.4299999773502","<p class='stimulus'>The thin falls rod gently</p>","70","html-keyboard-response","70","268862","0.0-4.0-1.20","","kr39sfwrcl","1","1605128727596","transword","1","24","true",""
"null","<svg width=""40"" height=""40""><circle             cx=""20"" cy=""20"" r=""20"" fill=""green"" /></svg>","null","html-keyboard-response","71","270867","0.0-4.0-2.20","","kr39sfwrcl","1","1605128727596","","","","",""
"null","<p class=""stimulus"">+</p>","null","html-keyboard-response","72","271528","0.0-4.0-0.21","","kr39sfwrcl","1","1605128727596","","","","",""
"1868.6000001616776","<p class='stimulus'>His short felt girlfriend dinner</p>","70","html-keyboard-response","73","273401","0.0-4.0-1.21","","kr39sfwrcl","1","1605128727596","control","1","63","true",""
"null","<svg width=""40"" height=""40""><circle             cx=""20"" cy=""20"" r=""20"" fill=""green"" /></svg>","null","html-keyboard-response","74","275404","0.0-4.0-2.21","","kr39sfwrcl","1","1605128727596","","","","",""
"null","<p class=""stimulus"">+</p>","null","html-keyboard-response","75","276064","0.0-4.0-0.22","","kr39sfwrcl","1","1605128727596","","","","",""
"1157.6399998739362","<p class='stimulus'>The cough syrup was helpful</p>","74","html-keyboard-response","76","277228","0.0-4.0-1.22","","kr39sfwrcl","1","1605128727596","gram","1","86","true",""
"null","<svg width=""40"" height=""40""><circle             cx=""20"" cy=""20"" r=""20"" fill=""green"" /></svg>","null","html-keyboard-response","77","279232","0.0-4.0-2.22","","kr39sfwrcl","1","1605128727596","","","","",""
"null","<p class=""stimulus"">+</p>","null","html-keyboard-response","78","279892","0.0-4.0-0.23","","kr39sfwrcl","1","1605128727596","","","","",""
"2186.239999718964","<p class='stimulus'>This beautiful panel solar works</p>","70","html-keyboard-response","79","282083","0.0-4.0-1.23","","kr39sfwrcl","1","1605128727596","transword","1","25","true",""
"null","<svg width=""40"" height=""40""><circle             cx=""20"" cy=""20"" r=""20"" fill=""green"" /></svg>","null","html-keyboard-response","80","284086","0.0-4.0-2.23","","kr39sfwrcl","1","1605128727596","","","","",""
"null","<p class=""stimulus"">+</p>","null","html-keyboard-response","81","284746","0.0-4.0-0.24","","kr39sfwrcl","1","1605128727596","","","","",""
"2234.449999872595","<p class='stimulus'>Her clever sister little passed</p>","70","html-keyboard-response","82","286986","0.0-4.0-1.24","","kr39sfwrcl","1","1605128727596","transword","1","5","true",""
"null","<svg width=""40"" height=""40""><circle             cx=""20"" cy=""20"" r=""20"" fill=""green"" /></svg>","null","html-keyboard-response","83","288991","0.0-4.0-2.24","","kr39sfwrcl","1","1605128727596","","","","",""
"null","<p class=""stimulus"">+</p>","null","html-keyboard-response","84","289650","0.0-4.0-0.25","","kr39sfwrcl","1","1605128727596","","","","",""
"1311.7450000718236","<p class='stimulus'>Your old never uncles there</p>","70","html-keyboard-response","85","290964","0.0-4.0-1.25","","kr39sfwrcl","1","1605128727596","control","1","43","true",""
"null","<svg width=""40"" height=""40""><circle             cx=""20"" cy=""20"" r=""20"" fill=""green"" /></svg>","null","html-keyboard-response","86","292969","0.0-4.0-2.25","","kr39sfwrcl","1","1605128727596","","","","",""
"null","<p class=""stimulus"">+</p>","null","html-keyboard-response","87","293627","0.0-4.0-0.26","","kr39sfwrcl","1","1605128727596","","","","",""
"2154.6749998815358","<p class='stimulus'>The garden vegetables grew out</p>","74","html-keyboard-response","88","295784","0.0-4.0-1.26","","kr39sfwrcl","1","1605128727596","gram","1","143","true",""
"null","<svg width=""40"" height=""40""><circle             cx=""20"" cy=""20"" r=""20"" fill=""green"" /></svg>","null","html-keyboard-response","89","297787","0.0-4.0-2.26","","kr39sfwrcl","1","1605128727596","","","","",""
"null","<p class=""stimulus"">+</p>","null","html-keyboard-response","90","298445","0.0-4.0-0.27","","kr39sfwrcl","1","1605128727596","","","","",""
"1284.775000065565","<p class='stimulus'>The blue whales are migrating</p>","74","html-keyboard-response","91","299732","0.0-4.0-1.27","","kr39sfwrcl","1","1605128727596","gram","1","126","true",""
"null","<svg width=""40"" height=""40""><circle             cx=""20"" cy=""20"" r=""20"" fill=""green"" /></svg>","null","html-keyboard-response","92","301742","0.0-4.0-2.27","","kr39sfwrcl","1","1605128727596","","","","",""
"null","<p class=""stimulus"">+</p>","null","html-keyboard-response","93","302400","0.0-4.0-0.28","","kr39sfwrcl","1","1605128727596","","","","",""
"1840.7000000588596","<p class='stimulus'>These pretty stones oval roll</p>","70","html-keyboard-response","94","304247","0.0-4.0-1.28","","kr39sfwrcl","1","1605128727596","transword","1","23","true",""
"null","<svg width=""40"" height=""40""><circle             cx=""20"" cy=""20"" r=""20"" fill=""green"" /></svg>","null","html-keyboard-response","95","306257","0.0-4.0-2.28","","kr39sfwrcl","1","1605128727596","","","","",""
"null","<p class=""stimulus"">+</p>","null","html-keyboard-response","96","306915","0.0-4.0-0.29","","kr39sfwrcl","1","1605128727596","","","","",""
"1563.4550000540912","<p class='stimulus'>The baker makes good pastries</p>","74","html-keyboard-response","97","308485","0.0-4.0-1.29","","kr39sfwrcl","1","1605128727596","gram","1","127","true",""
"null","<svg width=""40"" height=""40""><circle             cx=""20"" cy=""20"" r=""20"" fill=""green"" /></svg>","null","html-keyboard-response","98","310489","0.0-4.0-2.29","","kr39sfwrcl","1","1605128727596","","","","",""
"null","<p class=""stimulus"">+</p>","null","html-keyboard-response","99","311147","0.0-4.0-0.30","","kr39sfwrcl","1","1605128727596","","","","",""
"1323.1350001879036","<p class='stimulus'>That brown runs horse cried</p>","70","html-keyboard-response","100","312476","0.0-4.0-1.30","","kr39sfwrcl","1","1605128727596","control","1","46","true",""
"null","<svg width=""40"" height=""40""><circle             cx=""20"" cy=""20"" r=""20"" fill=""green"" /></svg>","null","html-keyboard-response","101","314482","0.0-4.0-2.30","","kr39sfwrcl","1","1605128727596","","","","",""
"null","<p class=""stimulus"">+</p>","null","html-keyboard-response","102","315142","0.0-4.0-0.31","","kr39sfwrcl","1","1605128727596","","","","",""
"1587.5749997794628","<p class='stimulus'>My wooden is cabin forget</p>","70","html-keyboard-response","103","316732","0.0-4.0-1.31","","kr39sfwrcl","1","1605128727596","control","1","44","true",""
"null","<svg width=""40"" height=""40""><circle             cx=""20"" cy=""20"" r=""20"" fill=""green"" /></svg>","null","html-keyboard-response","104","318739","0.0-4.0-2.31","","kr39sfwrcl","1","1605128727596","","","","",""
"null","<p class=""stimulus"">+</p>","null","html-keyboard-response","105","319399","0.0-4.0-0.32","","kr39sfwrcl","1","1605128727596","","","","",""
"3285.6200002133846","<p class='stimulus'>You should leave really now</p>","70","html-keyboard-response","106","322690","0.0-4.0-1.32","","kr39sfwrcl","1","1605128727596","transword","1","3","true",""
"null","<svg width=""40"" height=""40""><circle             cx=""20"" cy=""20"" r=""20"" fill=""green"" /></svg>","null","html-keyboard-response","107","324692","0.0-4.0-2.32","","kr39sfwrcl","1","1605128727596","","","","",""
"null","<p class=""stimulus"">+</p>","null","html-keyboard-response","108","325351","0.0-4.0-0.33","","kr39sfwrcl","1","1605128727596","","","","",""
"1019.0200000070035","<p class='stimulus'>The sweet bread is good</p>","74","html-keyboard-response","109","326372","0.0-4.0-1.33","","kr39sfwrcl","1","1605128727596","gram","1","85","true",""
"null","<svg width=""40"" height=""40""><circle             cx=""20"" cy=""20"" r=""20"" fill=""green"" /></svg>","null","html-keyboard-response","110","328374","0.0-4.0-2.33","","kr39sfwrcl","1","1605128727596","","","","",""
"null","<p class=""stimulus"">+</p>","null","html-keyboard-response","111","329033","0.0-4.0-0.34","","kr39sfwrcl","1","1605128727596","","","","",""
"1117.6450001075864","<p class='stimulus'>His lawn chair can fold</p>","74","html-keyboard-response","112","330153","0.0-4.0-1.34","","kr39sfwrcl","1","1605128727596","gram","1","125","true",""
"null","<svg width=""40"" height=""40""><circle             cx=""20"" cy=""20"" r=""20"" fill=""green"" /></svg>","null","html-keyboard-response","113","332155","0.0-4.0-2.34","","kr39sfwrcl","1","1605128727596","","","","",""
"null","<p class=""stimulus"">+</p>","null","html-keyboard-response","114","332816","0.0-4.0-0.35","","kr39sfwrcl","1","1605128727596","","","","",""
"1268.5050000436604","<p class='stimulus'>They wanted to sleep more</p>","74","html-keyboard-response","115","334091","0.0-4.0-1.35","","kr39sfwrcl","1","1605128727596","gram","1","105","true",""
"null","<svg width=""40"" height=""40""><circle             cx=""20"" cy=""20"" r=""20"" fill=""green"" /></svg>","null","html-keyboard-response","116","336094","0.0-4.0-2.35","","kr39sfwrcl","1","1605128727596","","","","",""
"null","<p class=""stimulus"">+</p>","null","html-keyboard-response","117","336754","0.0-4.0-0.36","","kr39sfwrcl","1","1605128727596","","","","",""
"1491.005000192672","<p class='stimulus'>The brown bugs were eaten</p>","74","html-keyboard-response","118","338250","0.0-4.0-1.36","","kr39sfwrcl","1","1605128727596","gram","1","106","true",""
"null","<svg width=""40"" height=""40""><circle             cx=""20"" cy=""20"" r=""20"" fill=""green"" /></svg>","null","html-keyboard-response","119","340252","0.0-4.0-2.36","","kr39sfwrcl","1","1605128727596","","","","",""
"null","<p class=""stimulus"">+</p>","null","html-keyboard-response","120","340913","0.0-4.0-0.37","","kr39sfwrcl","1","1605128727596","","","","",""
"1128.8899998180568","<p class='stimulus'>There should be no problem</p>","74","html-keyboard-response","121","342047","0.0-4.0-1.37","","kr39sfwrcl","1","1605128727596","gram","1","103","true",""
"null","<svg width=""40"" height=""40""><circle             cx=""20"" cy=""20"" r=""20"" fill=""green"" /></svg>","null","html-keyboard-response","122","344049","0.0-4.0-2.37","","kr39sfwrcl","1","1605128727596","","","","",""
"null","<p class=""stimulus"">+</p>","null","html-keyboard-response","123","344708","0.0-4.0-0.38","","kr39sfwrcl","1","1605128727596","","","","",""
"1439.3250001594424","<p class='stimulus'>I finished a making rockular</p>","70","html-keyboard-response","124","346153","0.0-4.0-1.38","","kr39sfwrcl","1","1605128727596","control","1","65","true",""
"null","<svg width=""40"" height=""40""><circle             cx=""20"" cy=""20"" r=""20"" fill=""green"" /></svg>","null","html-keyboard-response","125","348156","0.0-4.0-2.38","","kr39sfwrcl","1","1605128727596","","","","",""
"null","<p class=""stimulus"">+</p>","null","html-keyboard-response","126","348815","0.0-4.0-0.39","","kr39sfwrcl","1","1605128727596","","","","",""
"1526.114999782294","<p class='stimulus'>The flowers grow in spring</p>","74","html-keyboard-response","127","350347","0.0-4.0-1.39","","kr39sfwrcl","1","1605128727596","gram","1","104","true",""
"null","<svg width=""40"" height=""40""><circle             cx=""20"" cy=""20"" r=""20"" fill=""green"" /></svg>","null","html-keyboard-response","128","352350","0.0-4.0-2.39","","kr39sfwrcl","1","1605128727596","","","","",""
"22044.139999896288","You have completed block 1 of 4. You can take a short pause before continuing; press spacebar when you are ready to continue.<br /><br />[Press spacebar to begin the next block.]","32","html-keyboard-response","129","374397","0.0-5.0","","kr39sfwrcl","1","1605128727596","","","","",""
"null","<p class=""stimulus"">+</p>","null","html-keyboard-response","130","375041","0.0-6.0-0.0","","kr39sfwrcl","1","1605128727596","","","","",""
"1475.9149998426437","<p class='stimulus'>This magnificent will valley disappear</p>","70","html-keyboard-response","131","376524","0.0-6.0-1.0","","kr39sfwrcl","1","1605128727596","transword","2","28","true",""
"null","<svg width=""40"" height=""40""><circle             cx=""20"" cy=""20"" r=""20"" fill=""green"" /></svg>","null","html-keyboard-response","132","378528","0.0-6.0-2.0","","kr39sfwrcl","1","1605128727596","","","","",""
"null","<p class=""stimulus"">+</p>","null","html-keyboard-response","133","379173","0.0-6.0-0.1","","kr39sfwrcl","1","1605128727596","","","","",""
"1133.0300001427531","<p class='stimulus'>She wants to learn everything</p>","74","html-keyboard-response","134","380312","0.0-6.0-1.1","","kr39sfwrcl","1","1605128727596","gram","2","108","true",""
"null","<svg width=""40"" height=""40""><circle             cx=""20"" cy=""20"" r=""20"" fill=""green"" /></svg>","null","html-keyboard-response","135","382316","0.0-6.0-2.1","","kr39sfwrcl","1","1605128727596","","","","",""
"null","<p class=""stimulus"">+</p>","null","html-keyboard-response","136","382960","0.0-6.0-0.2","","kr39sfwrcl","1","1605128727596","","","","",""
"2279.8549998551607","<p class='stimulus'>The huge lights star up</p>","70","html-keyboard-response","137","385244","0.0-6.0-1.2","","kr39sfwrcl","1","1605128727596","transword","2","8","true",""
"null","<svg width=""40"" height=""40""><circle             cx=""20"" cy=""20"" r=""20"" fill=""green"" /></svg>","null","html-keyboard-response","138","387246","0.0-6.0-2.2","","kr39sfwrcl","1","1605128727596","","","","",""
"null","<p class=""stimulus"">+</p>","null","html-keyboard-response","139","387891","0.0-6.0-0.3","","kr39sfwrcl","1","1605128727596","","","","",""
"1091.8149999342859","<p class='stimulus'>We see some dark clouds</p>","74","html-keyboard-response","140","388990","0.0-6.0-1.3","","kr39sfwrcl","1","1605128727596","gram","2","151","true",""
"null","<svg width=""40"" height=""40""><circle             cx=""20"" cy=""20"" r=""20"" fill=""green"" /></svg>","null","html-keyboard-response","141","390995","0.0-6.0-2.3","","kr39sfwrcl","1","1605128727596","","","","",""
"null","<p class=""stimulus"">+</p>","null","html-keyboard-response","142","391641","0.0-6.0-0.4","","kr39sfwrcl","1","1605128727596","","","","",""
"1159.0899997390807","<p class='stimulus'>Our shiny is ball new</p>","70","html-keyboard-response","143","392806","0.0-6.0-1.4","","kr39sfwrcl","1","1605128727596","transword","2","31","true",""
"null","<svg width=""40"" height=""40""><circle             cx=""20"" cy=""20"" r=""20"" fill=""green"" /></svg>","null","html-keyboard-response","144","394810","0.0-6.0-2.4","","kr39sfwrcl","1","1605128727596","","","","",""
"null","<p class=""stimulus"">+</p>","null","html-keyboard-response","145","395455","0.0-6.0-0.5","","kr39sfwrcl","1","1605128727596","","","","",""
"1364.860000088811","<p class='stimulus'>My friend to likes high</p>","70","html-keyboard-response","146","396826","0.0-6.0-1.5","","kr39sfwrcl","1","1605128727596","control","2","72","true",""
"null","<svg width=""40"" height=""40""><circle             cx=""20"" cy=""20"" r=""20"" fill=""green"" /></svg>","null","html-keyboard-response","147","398830","0.0-6.0-2.5","","kr39sfwrcl","1","1605128727596","","","","",""
"null","<p class=""stimulus"">+</p>","null","html-keyboard-response","148","399476","0.0-6.0-0.6","","kr39sfwrcl","1","1605128727596","","","","",""
"1203.9800002239645","<p class='stimulus'>They went to a museum</p>","70","html-keyboard-response","149","400686","0.0-6.0-1.6","","kr39sfwrcl","1","1605128727596","gram","2","149","false",""
"null","<svg width=""40"" height=""40""><circle             cx=""20"" cy=""20"" r=""20"" fill=""red"" /></svg>","null","html-keyboard-response","150","402689","0.0-6.0-2.6","","kr39sfwrcl","1","1605128727596","","","","",""
"null","<p class=""stimulus"">+</p>","null","html-keyboard-response","151","403334","0.0-6.0-0.7","","kr39sfwrcl","1","1605128727596","","","","",""
"1726.419999729842","<p class='stimulus'>You bought fried some happily</p>","70","html-keyboard-response","152","405066","0.0-6.0-1.7","","kr39sfwrcl","1","1605128727596","control","2","49","true",""
"null","<svg width=""40"" height=""40""><circle             cx=""20"" cy=""20"" r=""20"" fill=""green"" /></svg>","null","html-keyboard-response","153","407070","0.0-6.0-2.7","","kr39sfwrcl","1","1605128727596","","","","",""
"null","<p class=""stimulus"">+</p>","null","html-keyboard-response","154","407714","0.0-6.0-0.8","","kr39sfwrcl","1","1605128727596","","","","",""
"1649.9299998395145","<p class='stimulus'>He picks ripe up afraid</p>","70","html-keyboard-response","155","409369","0.0-6.0-1.8","","kr39sfwrcl","1","1605128727596","control","2","68","true",""
"null","<svg width=""40"" height=""40""><circle             cx=""20"" cy=""20"" r=""20"" fill=""green"" /></svg>","null","html-keyboard-response","156","411371","0.0-6.0-2.8","","kr39sfwrcl","1","1605128727596","","","","",""
"null","<p class=""stimulus"">+</p>","null","html-keyboard-response","157","412017","0.0-6.0-0.9","","kr39sfwrcl","1","1605128727596","","","","",""
"2117.5449998117983","<p class='stimulus'>These fruit candies are delicious</p>","74","html-keyboard-response","158","414140","0.0-6.0-1.9","","kr39sfwrcl","1","1605128727596","gram","2","129","true",""
"null","<svg width=""40"" height=""40""><circle             cx=""20"" cy=""20"" r=""20"" fill=""green"" /></svg>","null","html-keyboard-response","159","416143","0.0-6.0-2.9","","kr39sfwrcl","1","1605128727596","","","","",""
"null","<p class=""stimulus"">+</p>","null","html-keyboard-response","160","416787","0.0-6.0-0.10","","kr39sfwrcl","1","1605128727596","","","","",""
"1418.430000077933","<p class='stimulus'>The monkey is caged up</p>","74","html-keyboard-response","161","418211","0.0-6.0-1.10","","kr39sfwrcl","1","1605128727596","gram","2","110","true",""
"null","<svg width=""40"" height=""40""><circle             cx=""20"" cy=""20"" r=""20"" fill=""green"" /></svg>","null","html-keyboard-response","162","420213","0.0-6.0-2.10","","kr39sfwrcl","1","1605128727596","","","","",""
"null","<p class=""stimulus"">+</p>","null","html-keyboard-response","163","420859","0.0-6.0-0.11","","kr39sfwrcl","1","1605128727596","","","","",""
"1104.869999922812","<p class='stimulus'>You listen to rock songs</p>","74","html-keyboard-response","164","421969","0.0-6.0-1.11","","kr39sfwrcl","1","1605128727596","gram","2","152","true",""
"null","<svg width=""40"" height=""40""><circle             cx=""20"" cy=""20"" r=""20"" fill=""green"" /></svg>","null","html-keyboard-response","165","423971","0.0-6.0-2.11","","kr39sfwrcl","1","1605128727596","","","","",""
"null","<p class=""stimulus"">+</p>","null","html-keyboard-response","166","424616","0.0-6.0-0.12","","kr39sfwrcl","1","1605128727596","","","","",""
"1706.6250001080334","<p class='stimulus'>His grand are uncles ill</p>","70","html-keyboard-response","167","426328","0.0-6.0-1.12","","kr39sfwrcl","1","1605128727596","transword","2","30","true",""
"null","<svg width=""40"" height=""40""><circle             cx=""20"" cy=""20"" r=""20"" fill=""green"" /></svg>","null","html-keyboard-response","168","428331","0.0-6.0-2.12","","kr39sfwrcl","1","1605128727596","","","","",""
"null","<p class=""stimulus"">+</p>","null","html-keyboard-response","169","428976","0.0-6.0-0.13","","kr39sfwrcl","1","1605128727596","","","","",""
"1337.384999729693","<p class='stimulus'>He does not know everything</p>","74","html-keyboard-response","170","430315","0.0-6.0-1.13","","kr39sfwrcl","1","1605128727596","gram","2","89","true",""
"null","<svg width=""40"" height=""40""><circle             cx=""20"" cy=""20"" r=""20"" fill=""green"" /></svg>","null","html-keyboard-response","171","432318","0.0-6.0-2.13","","kr39sfwrcl","1","1605128727596","","","","",""
"null","<p class=""stimulus"">+</p>","null","html-keyboard-response","172","432964","0.0-6.0-0.14","","kr39sfwrcl","1","1605128727596","","","","",""
"896.6300003230572","<p class='stimulus'>She often thinks of you</p>","74","html-keyboard-response","173","433863","0.0-6.0-1.14","","kr39sfwrcl","1","1605128727596","gram","2","130","true",""
"null","<svg width=""40"" height=""40""><circle             cx=""20"" cy=""20"" r=""20"" fill=""green"" /></svg>","null","html-keyboard-response","174","435866","0.0-6.0-2.14","","kr39sfwrcl","1","1605128727596","","","","",""
"null","<p class=""stimulus"">+</p>","null","html-keyboard-response","175","436511","0.0-6.0-0.15","","kr39sfwrcl","1","1605128727596","","","","",""
"1459.6049999818206","<p class='stimulus'>Their large balls round fell</p>","70","html-keyboard-response","176","437977","0.0-6.0-1.15","","kr39sfwrcl","1","1605128727596","transword","2","9","true",""
"null","<svg width=""40"" height=""40""><circle             cx=""20"" cy=""20"" r=""20"" fill=""green"" /></svg>","null","html-keyboard-response","177","439979","0.0-6.0-2.15","","kr39sfwrcl","1","1605128727596","","","","",""
"null","<p class=""stimulus"">+</p>","null","html-keyboard-response","178","440625","0.0-6.0-0.16","","kr39sfwrcl","1","1605128727596","","","","",""
"2022.869999986142","<p class='stimulus'>I went the to tasty</p>","70","html-keyboard-response","179","442655","0.0-6.0-1.16","","kr39sfwrcl","1","1605128727596","control","2","52","true",""
"null","<svg width=""40"" height=""40""><circle             cx=""20"" cy=""20"" r=""20"" fill=""green"" /></svg>","null","html-keyboard-response","180","444659","0.0-6.0-2.16","","kr39sfwrcl","1","1605128727596","","","","",""
"null","<p class=""stimulus"">+</p>","null","html-keyboard-response","181","445304","0.0-6.0-0.17","","kr39sfwrcl","1","1605128727596","","","","",""
"2124.0799999795854","<p class='stimulus'>Your two are nephews go</p>","70","html-keyboard-response","182","447434","0.0-6.0-1.17","","kr39sfwrcl","1","1605128727596","control","2","69","true",""
"null","<svg width=""40"" height=""40""><circle             cx=""20"" cy=""20"" r=""20"" fill=""green"" /></svg>","null","html-keyboard-response","183","449439","0.0-6.0-2.17","","kr39sfwrcl","1","1605128727596","","","","",""
"null","<p class=""stimulus"">+</p>","null","html-keyboard-response","184","450089","0.0-6.0-0.18","","kr39sfwrcl","1","1605128727596","","","","",""
"1243.6499996110797","<p class='stimulus'>Our distant fell cousin things</p>","70","html-keyboard-response","185","451339","0.0-6.0-1.18","","kr39sfwrcl","1","1605128727596","control","2","48","true",""
"null","<svg width=""40"" height=""40""><circle             cx=""20"" cy=""20"" r=""20"" fill=""green"" /></svg>","null","html-keyboard-response","186","453343","0.0-6.0-2.18","","kr39sfwrcl","1","1605128727596","","","","",""
"null","<p class=""stimulus"">+</p>","null","html-keyboard-response","187","453988","0.0-6.0-0.19","","kr39sfwrcl","1","1605128727596","","","","",""
"2203.6950001493096","<p class='stimulus'>He will dig a hole</p>","74","html-keyboard-response","188","456197","0.0-6.0-1.19","","kr39sfwrcl","1","1605128727596","gram","2","148","true",""
"null","<svg width=""40"" height=""40""><circle             cx=""20"" cy=""20"" r=""20"" fill=""green"" /></svg>","null","html-keyboard-response","189","458201","0.0-6.0-2.19","","kr39sfwrcl","1","1605128727596","","","","",""
"null","<p class=""stimulus"">+</p>","null","html-keyboard-response","190","458845","0.0-6.0-0.20","","kr39sfwrcl","1","1605128727596","","","","",""
"1658.365000039339","<p class='stimulus'>That poor can man walk</p>","70","html-keyboard-response","191","460509","0.0-6.0-1.20","","kr39sfwrcl","1","1605128727596","transword","2","29","true",""
"null","<svg width=""40"" height=""40""><circle             cx=""20"" cy=""20"" r=""20"" fill=""green"" /></svg>","null","html-keyboard-response","192","462513","0.0-6.0-2.20","","kr39sfwrcl","1","1605128727596","","","","",""
"null","<p class=""stimulus"">+</p>","null","html-keyboard-response","193","463159","0.0-6.0-0.21","","kr39sfwrcl","1","1605128727596","","","","",""
"1081.8599998019636","<p class='stimulus'>The weather is sunny today</p>","74","html-keyboard-response","194","464246","0.0-6.0-1.21","","kr39sfwrcl","1","1605128727596","gram","2","150","true",""
"null","<svg width=""40"" height=""40""><circle             cx=""20"" cy=""20"" r=""20"" fill=""green"" /></svg>","null","html-keyboard-response","195","466250","0.0-6.0-2.21","","kr39sfwrcl","1","1605128727596","","","","",""
"null","<p class=""stimulus"">+</p>","null","html-keyboard-response","196","466894","0.0-6.0-0.22","","kr39sfwrcl","1","1605128727596","","","","",""
"1417.8949999623","<p class='stimulus'>They want destroy to themselves</p>","70","html-keyboard-response","197","468314","0.0-6.0-1.22","","kr39sfwrcl","1","1605128727596","transword","2","32","true",""
"null","<svg width=""40"" height=""40""><circle             cx=""20"" cy=""20"" r=""20"" fill=""green"" /></svg>","null","html-keyboard-response","198","470316","0.0-6.0-2.22","","kr39sfwrcl","1","1605128727596","","","","",""
"null","<p class=""stimulus"">+</p>","null","html-keyboard-response","199","470960","0.0-6.0-0.23","","kr39sfwrcl","1","1605128727596","","","","",""
"1369.7399999946356","<p class='stimulus'>He wants some salty fries</p>","74","html-keyboard-response","200","472336","0.0-6.0-1.23","","kr39sfwrcl","1","1605128727596","gram","2","131","true",""
"null","<svg width=""40"" height=""40""><circle             cx=""20"" cy=""20"" r=""20"" fill=""green"" /></svg>","null","html-keyboard-response","201","474339","0.0-6.0-2.23","","kr39sfwrcl","1","1605128727596","","","","",""
"null","<p class=""stimulus"">+</p>","null","html-keyboard-response","202","474983","0.0-6.0-0.24","","kr39sfwrcl","1","1605128727596","","","","",""
"1291.3750000298023","<p class='stimulus'>The flexible climbs girl dance</p>","70","html-keyboard-response","203","476283","0.0-6.0-1.24","","kr39sfwrcl","1","1605128727596","control","2","71","true",""
"null","<svg width=""40"" height=""40""><circle             cx=""20"" cy=""20"" r=""20"" fill=""green"" /></svg>","null","html-keyboard-response","204","478285","0.0-6.0-2.24","","kr39sfwrcl","1","1605128727596","","","","",""
"null","<p class=""stimulus"">+</p>","null","html-keyboard-response","205","478929","0.0-6.0-0.25","","kr39sfwrcl","1","1605128727596","","","","",""
"1189.455000218004","<p class='stimulus'>The time difference is important</p>","74","html-keyboard-response","206","480125","0.0-6.0-1.25","","kr39sfwrcl","1","1605128727596","gram","2","109","true",""
"null","<svg width=""40"" height=""40""><circle             cx=""20"" cy=""20"" r=""20"" fill=""green"" /></svg>","null","html-keyboard-response","207","482128","0.0-6.0-2.25","","kr39sfwrcl","1","1605128727596","","","","",""
"null","<p class=""stimulus"">+</p>","null","html-keyboard-response","208","482772","0.0-6.0-0.26","","kr39sfwrcl","1","1605128727596","","","","",""
"1232.9350002110004","<p class='stimulus'>The gray eat mice everything</p>","70","html-keyboard-response","209","484011","0.0-6.0-1.26","","kr39sfwrcl","1","1605128727596","transword","2","12","true",""
"null","<svg width=""40"" height=""40""><circle             cx=""20"" cy=""20"" r=""20"" fill=""green"" /></svg>","null","html-keyboard-response","210","486015","0.0-6.0-2.26","","kr39sfwrcl","1","1605128727596","","","","",""
"null","<p class=""stimulus"">+</p>","null","html-keyboard-response","211","486659","0.0-6.0-0.27","","kr39sfwrcl","1","1605128727596","","","","",""
"1510.1049998775125","<p class='stimulus'>My fresh is watermelon cinema</p>","70","html-keyboard-response","212","488175","0.0-6.0-1.27","","kr39sfwrcl","1","1605128727596","control","2","51","true",""
"null","<svg width=""40"" height=""40""><circle             cx=""20"" cy=""20"" r=""20"" fill=""green"" /></svg>","null","html-keyboard-response","213","490180","0.0-6.0-2.27","","kr39sfwrcl","1","1605128727596","","","","",""
"null","<p class=""stimulus"">+</p>","null","html-keyboard-response","214","490824","0.0-6.0-0.28","","kr39sfwrcl","1","1605128727596","","","","",""
"1089.080000296235","<p class='stimulus'>There are so many people</p>","74","html-keyboard-response","215","491920","0.0-6.0-1.28","","kr39sfwrcl","1","1605128727596","gram","2","90","true",""
"null","<svg width=""40"" height=""40""><circle             cx=""20"" cy=""20"" r=""20"" fill=""green"" /></svg>","null","html-keyboard-response","216","493921","0.0-6.0-2.28","","kr39sfwrcl","1","1605128727596","","","","",""
"null","<p class=""stimulus"">+</p>","null","html-keyboard-response","217","494565","0.0-6.0-0.29","","kr39sfwrcl","1","1605128727596","","","","",""
"1419.240000192076","<p class='stimulus'>Those salads are sold out</p>","74","html-keyboard-response","218","495990","0.0-6.0-1.29","","kr39sfwrcl","1","1605128727596","gram","2","128","true",""
"null","<svg width=""40"" height=""40""><circle             cx=""20"" cy=""20"" r=""20"" fill=""green"" /></svg>","null","html-keyboard-response","219","497995","0.0-6.0-2.29","","kr39sfwrcl","1","1605128727596","","","","",""
"null","<p class=""stimulus"">+</p>","null","html-keyboard-response","220","498640","0.0-6.0-0.30","","kr39sfwrcl","1","1605128727596","","","","",""
"1765.980000142008","<p class='stimulus'>Here is the right key</p>","74","html-keyboard-response","221","500412","0.0-6.0-1.30","","kr39sfwrcl","1","1605128727596","gram","2","132","true",""
"null","<svg width=""40"" height=""40""><circle             cx=""20"" cy=""20"" r=""20"" fill=""green"" /></svg>","null","html-keyboard-response","222","502415","0.0-6.0-2.30","","kr39sfwrcl","1","1605128727596","","","","",""
"null","<p class=""stimulus"">+</p>","null","html-keyboard-response","223","503060","0.0-6.0-0.31","","kr39sfwrcl","1","1605128727596","","","","",""
"1740.0899999774992","<p class='stimulus'>We want to you thirsty</p>","70","html-keyboard-response","224","504805","0.0-6.0-1.31","","kr39sfwrcl","1","1605128727596","control","2","70","true",""
"null","<svg width=""40"" height=""40""><circle             cx=""20"" cy=""20"" r=""20"" fill=""green"" /></svg>","null","html-keyboard-response","225","506809","0.0-6.0-2.31","","kr39sfwrcl","1","1605128727596","","","","",""
"null","<p class=""stimulus"">+</p>","null","html-keyboard-response","226","507454","0.0-6.0-0.32","","kr39sfwrcl","1","1605128727596","","","","",""
"2383.63999966532","<p class='stimulus'>The lonely bird raven sings</p>","70","html-keyboard-response","227","509843","0.0-6.0-1.32","","kr39sfwrcl","1","1605128727596","transword","2","11","true",""
"null","<svg width=""40"" height=""40""><circle             cx=""20"" cy=""20"" r=""20"" fill=""green"" /></svg>","null","html-keyboard-response","228","511846","0.0-6.0-2.32","","kr39sfwrcl","1","1605128727596","","","","",""
"null","<p class=""stimulus"">+</p>","null","html-keyboard-response","229","512491","0.0-6.0-0.33","","kr39sfwrcl","1","1605128727596","","","","",""
"1548.7600001506507","<p class='stimulus'>You will be going tomorrow</p>","74","html-keyboard-response","230","514046","0.0-6.0-1.33","","kr39sfwrcl","1","1605128727596","gram","2","92","true",""
"null","<svg width=""40"" height=""40""><circle             cx=""20"" cy=""20"" r=""20"" fill=""green"" /></svg>","null","html-keyboard-response","231","516048","0.0-6.0-2.33","","kr39sfwrcl","1","1605128727596","","","","",""
"null","<p class=""stimulus"">+</p>","null","html-keyboard-response","232","516693","0.0-6.0-0.34","","kr39sfwrcl","1","1605128727596","","","","",""
"1379.919999744743","<p class='stimulus'>She always listens to conversations</p>","74","html-keyboard-response","233","518079","0.0-6.0-1.34","","kr39sfwrcl","1","1605128727596","gram","2","112","true",""
"null","<svg width=""40"" height=""40""><circle             cx=""20"" cy=""20"" r=""20"" fill=""green"" /></svg>","null","html-keyboard-response","234","520082","0.0-6.0-2.34","","kr39sfwrcl","1","1605128727596","","","","",""
"null","<p class=""stimulus"">+</p>","null","html-keyboard-response","235","520726","0.0-6.0-0.35","","kr39sfwrcl","1","1605128727596","","","","",""
"998.435000423342","<p class='stimulus'>You are just too afraid</p>","74","html-keyboard-response","236","521727","0.0-6.0-1.35","","kr39sfwrcl","1","1605128727596","gram","2","91","true",""
"null","<svg width=""40"" height=""40""><circle             cx=""20"" cy=""20"" r=""20"" fill=""green"" /></svg>","null","html-keyboard-response","237","523731","0.0-6.0-2.35","","kr39sfwrcl","1","1605128727596","","","","",""
"null","<p class=""stimulus"">+</p>","null","html-keyboard-response","238","524376","0.0-6.0-0.36","","kr39sfwrcl","1","1605128727596","","","","",""
"1606.0900003649294","<p class='stimulus'>Paper burns in the sun</p>","74","html-keyboard-response","239","525988","0.0-6.0-1.36","","kr39sfwrcl","1","1605128727596","gram","2","88","true",""
"null","<svg width=""40"" height=""40""><circle             cx=""20"" cy=""20"" r=""20"" fill=""green"" /></svg>","null","html-keyboard-response","240","527991","0.0-6.0-2.36","","kr39sfwrcl","1","1605128727596","","","","",""
"null","<p class=""stimulus"">+</p>","null","html-keyboard-response","241","528637","0.0-6.0-0.37","","kr39sfwrcl","1","1605128727596","","","","",""
"1949.6350004337728","<p class='stimulus'>Her young smiled kid fish</p>","70","html-keyboard-response","242","530592","0.0-6.0-1.37","","kr39sfwrcl","1","1605128727596","control","2","50","true",""
"null","<svg width=""40"" height=""40""><circle             cx=""20"" cy=""20"" r=""20"" fill=""green"" /></svg>","null","html-keyboard-response","243","532596","0.0-6.0-2.37","","kr39sfwrcl","1","1605128727596","","","","",""
"null","<p class=""stimulus"">+</p>","null","html-keyboard-response","244","533241","0.0-6.0-0.38","","kr39sfwrcl","1","1605128727596","","","","",""
"1529.0300003252923","<p class='stimulus'>Your elderly wants uncle everything</p>","70","html-keyboard-response","245","534776","0.0-6.0-1.38","","kr39sfwrcl","1","1605128727596","transword","2","10","true",""
"null","<svg width=""40"" height=""40""><circle             cx=""20"" cy=""20"" r=""20"" fill=""green"" /></svg>","null","html-keyboard-response","246","536779","0.0-6.0-2.38","","kr39sfwrcl","1","1605128727596","","","","",""
"null","<p class=""stimulus"">+</p>","null","html-keyboard-response","247","537424","0.0-6.0-0.39","","kr39sfwrcl","1","1605128727596","","","","",""
"1185.814999975264","<p class='stimulus'>You seem to live dangerously</p>","74","html-keyboard-response","248","538613","0.0-6.0-1.39","","kr39sfwrcl","1","1605128727596","gram","2","111","true",""
"null","<svg width=""40"" height=""40""><circle             cx=""20"" cy=""20"" r=""20"" fill=""green"" /></svg>","null","html-keyboard-response","249","540617","0.0-6.0-2.39","","kr39sfwrcl","1","1605128727596","","","","",""
"7832.46499998495","You have completed block 2 of 4. You can take a short pause before continuing; press spacebar when you are ready to continue.<br /><br />[Press spacebar to begin the next block.]","32","html-keyboard-response","250","548452","0.0-7.0","","kr39sfwrcl","1","1605128727596","","","","",""
"null","<p class=""stimulus"">+</p>","null","html-keyboard-response","251","549142","0.0-8.0-0.0","","kr39sfwrcl","1","1605128727596","","","","",""
"967.6999999210238","<p class='stimulus'>You did not change it</p>","74","html-keyboard-response","252","550115","0.0-8.0-1.0","","kr39sfwrcl","1","1605128727596","gram","3","97","true",""
"null","<svg width=""40"" height=""40""><circle             cx=""20"" cy=""20"" r=""20"" fill=""green"" /></svg>","null","html-keyboard-response","253","552118","0.0-8.0-2.0","","kr39sfwrcl","1","1605128727596","","","","",""
"null","<p class=""stimulus"">+</p>","null","html-keyboard-response","254","552807","0.0-8.0-0.1","","kr39sfwrcl","1","1605128727596","","","","",""
"2340.3750001452863","<p class='stimulus'>Your older suddenly brother jumped</p>","70","html-keyboard-response","255","555151","0.0-8.0-1.1","","kr39sfwrcl","1","1605128727596","transword","3","37","true",""
"null","<svg width=""40"" height=""40""><circle             cx=""20"" cy=""20"" r=""20"" fill=""green"" /></svg>","null","html-keyboard-response","256","557155","0.0-8.0-2.1","","kr39sfwrcl","1","1605128727596","","","","",""
"null","<p class=""stimulus"">+</p>","null","html-keyboard-response","257","557844","0.0-8.0-0.2","","kr39sfwrcl","1","1605128727596","","","","",""
"1325.124999973923","<p class='stimulus'>The black play dogs nearby</p>","70","html-keyboard-response","258","559171","0.0-8.0-1.2","","kr39sfwrcl","1","1605128727596","transword","3","34","true",""
"null","<svg width=""40"" height=""40""><circle             cx=""20"" cy=""20"" r=""20"" fill=""green"" /></svg>","null","html-keyboard-response","259","561176","0.0-8.0-2.2","","kr39sfwrcl","1","1605128727596","","","","",""
"null","<p class=""stimulus"">+</p>","null","html-keyboard-response","260","561865","0.0-8.0-0.3","","kr39sfwrcl","1","1605128727596","","","","",""
"1175.5000003613532","<p class='stimulus'>The deer is leaping about</p>","74","html-keyboard-response","261","563042","0.0-8.0-1.3","","kr39sfwrcl","1","1605128727596","gram","3","96","true",""
"null","<svg width=""40"" height=""40""><circle             cx=""20"" cy=""20"" r=""20"" fill=""green"" /></svg>","null","html-keyboard-response","262","565046","0.0-8.0-2.3","","kr39sfwrcl","1","1605128727596","","","","",""
"null","<p class=""stimulus"">+</p>","null","html-keyboard-response","263","565736","0.0-8.0-0.4","","kr39sfwrcl","1","1605128727596","","","","",""
"1257.7400002628565","<p class='stimulus'>Her rich father is anxious</p>","74","html-keyboard-response","264","566996","0.0-8.0-1.4","","kr39sfwrcl","1","1605128727596","gram","3","94","true",""
"null","<svg width=""40"" height=""40""><circle             cx=""20"" cy=""20"" r=""20"" fill=""green"" /></svg>","null","html-keyboard-response","265","569000","0.0-8.0-2.4","","kr39sfwrcl","1","1605128727596","","","","",""
"null","<p class=""stimulus"">+</p>","null","html-keyboard-response","266","569689","0.0-8.0-0.5","","kr39sfwrcl","1","1605128727596","","","","",""
"2574.4699998758733","<p class='stimulus'>I sleep my in red</p>","70","html-keyboard-response","267","572266","0.0-8.0-1.5","","kr39sfwrcl","1","1605128727596","control","3","74","true",""
"null","<svg width=""40"" height=""40""><circle             cx=""20"" cy=""20"" r=""20"" fill=""green"" /></svg>","null","html-keyboard-response","268","574269","0.0-8.0-2.5","","kr39sfwrcl","1","1605128727596","","","","",""
"null","<p class=""stimulus"">+</p>","null","html-keyboard-response","269","574957","0.0-8.0-0.6","","kr39sfwrcl","1","1605128727596","","","","",""
"998.2799999415874","<p class='stimulus'>That swan is rather lovely</p>","74","html-keyboard-response","270","575960","0.0-8.0-1.6","","kr39sfwrcl","1","1605128727596","gram","3","114","true",""
"null","<svg width=""40"" height=""40""><circle             cx=""20"" cy=""20"" r=""20"" fill=""green"" /></svg>","null","html-keyboard-response","271","577963","0.0-8.0-2.6","","kr39sfwrcl","1","1605128727596","","","","",""
"null","<p class=""stimulus"">+</p>","null","html-keyboard-response","272","578653","0.0-8.0-0.7","","kr39sfwrcl","1","1605128727596","","","","",""
"1434.9499996751547","<p class='stimulus'>They carve a large stone</p>","74","html-keyboard-response","273","580094","0.0-8.0-1.7","","kr39sfwrcl","1","1605128727596","gram","3","95","true",""
"null","<svg width=""40"" height=""40""><circle             cx=""20"" cy=""20"" r=""20"" fill=""green"" /></svg>","null","html-keyboard-response","274","582097","0.0-8.0-2.7","","kr39sfwrcl","1","1605128727596","","","","",""
"null","<p class=""stimulus"">+</p>","null","html-keyboard-response","275","582786","0.0-8.0-0.8","","kr39sfwrcl","1","1605128727596","","","","",""
"1196.4799999259412","<p class='stimulus'>The new mirror long shines</p>","70","html-keyboard-response","276","583988","0.0-8.0-1.8","","kr39sfwrcl","1","1605128727596","transword","3","17","true",""
"null","<svg width=""40"" height=""40""><circle             cx=""20"" cy=""20"" r=""20"" fill=""green"" /></svg>","null","html-keyboard-response","277","585992","0.0-8.0-2.8","","kr39sfwrcl","1","1605128727596","","","","",""
"null","<p class=""stimulus"">+</p>","null","html-keyboard-response","278","586680","0.0-8.0-0.9","","kr39sfwrcl","1","1605128727596","","","","",""
"1539.9850001558661","<p class='stimulus'>The others are very kind</p>","74","html-keyboard-response","279","588223","0.0-8.0-1.9","","kr39sfwrcl","1","1605128727596","gram","3","113","true",""
"null","<svg width=""40"" height=""40""><circle             cx=""20"" cy=""20"" r=""20"" fill=""green"" /></svg>","null","html-keyboard-response","280","590227","0.0-8.0-2.9","","kr39sfwrcl","1","1605128727596","","","","",""
"null","<p class=""stimulus"">+</p>","null","html-keyboard-response","281","590915","0.0-8.0-0.10","","kr39sfwrcl","1","1605128727596","","","","",""
"1883.660000283271","<p class='stimulus'>His closed got door soon</p>","70","html-keyboard-response","282","592805","0.0-8.0-1.10","","kr39sfwrcl","1","1605128727596","control","3","57","true",""
"null","<svg width=""40"" height=""40""><circle             cx=""20"" cy=""20"" r=""20"" fill=""green"" /></svg>","null","html-keyboard-response","283","594808","0.0-8.0-2.10","","kr39sfwrcl","1","1605128727596","","","","",""
"null","<p class=""stimulus"">+</p>","null","html-keyboard-response","284","595498","0.0-8.0-0.11","","kr39sfwrcl","1","1605128727596","","","","",""
"1522.330000065267","<p class='stimulus'>This friendly was woman lot</p>","70","html-keyboard-response","285","597030","0.0-8.0-1.11","","kr39sfwrcl","1","1605128727596","control","3","77","true",""
"null","<svg width=""40"" height=""40""><circle             cx=""20"" cy=""20"" r=""20"" fill=""green"" /></svg>","null","html-keyboard-response","286","599036","0.0-8.0-2.11","","kr39sfwrcl","1","1605128727596","","","","",""
"null","<p class=""stimulus"">+</p>","null","html-keyboard-response","287","599725","0.0-8.0-0.12","","kr39sfwrcl","1","1605128727596","","","","",""
"1608.5049998946488","<p class='stimulus'>His orange often hens fight</p>","70","html-keyboard-response","288","601339","0.0-8.0-1.12","","kr39sfwrcl","1","1605128727596","transword","3","35","true",""
"null","<svg width=""40"" height=""40""><circle             cx=""20"" cy=""20"" r=""20"" fill=""green"" /></svg>","null","html-keyboard-response","289","603342","0.0-8.0-2.12","","kr39sfwrcl","1","1605128727596","","","","",""
"null","<p class=""stimulus"">+</p>","null","html-keyboard-response","290","604031","0.0-8.0-0.13","","kr39sfwrcl","1","1605128727596","","","","",""
"1163.1800001487136","<p class='stimulus'>This kind of thing happens</p>","74","html-keyboard-response","291","605201","0.0-8.0-1.13","","kr39sfwrcl","1","1605128727596","gram","3","117","true",""
"null","<svg width=""40"" height=""40""><circle             cx=""20"" cy=""20"" r=""20"" fill=""green"" /></svg>","null","html-keyboard-response","292","607205","0.0-8.0-2.13","","kr39sfwrcl","1","1605128727596","","","","",""
"null","<p class=""stimulus"">+</p>","null","html-keyboard-response","293","607895","0.0-8.0-0.14","","kr39sfwrcl","1","1605128727596","","","","",""
"1542.2200001776218","<p class='stimulus'>He accidentally scratched the cat</p>","74","html-keyboard-response","294","609442","0.0-8.0-1.14","","kr39sfwrcl","1","1605128727596","gram","3","137","true",""
"null","<svg width=""40"" height=""40""><circle             cx=""20"" cy=""20"" r=""20"" fill=""green"" /></svg>","null","html-keyboard-response","295","611444","0.0-8.0-2.14","","kr39sfwrcl","1","1605128727596","","","","",""
"null","<p class=""stimulus"">+</p>","null","html-keyboard-response","296","612134","0.0-8.0-0.15","","kr39sfwrcl","1","1605128727596","","","","",""
"1661.1649999395013","<p class='stimulus'>She had butter on toast</p>","74","html-keyboard-response","297","613800","0.0-8.0-1.15","","kr39sfwrcl","1","1605128727596","gram","3","93","true",""
"null","<svg width=""40"" height=""40""><circle             cx=""20"" cy=""20"" r=""20"" fill=""green"" /></svg>","null","html-keyboard-response","298","615803","0.0-8.0-2.15","","kr39sfwrcl","1","1605128727596","","","","",""
"null","<p class=""stimulus"">+</p>","null","html-keyboard-response","299","616492","0.0-8.0-0.16","","kr39sfwrcl","1","1605128727596","","","","",""
"1192.4049998633564","<p class='stimulus'>Their small was kitten dive</p>","70","html-keyboard-response","300","617690","0.0-8.0-1.16","","kr39sfwrcl","1","1605128727596","control","3","53","true",""
"null","<svg width=""40"" height=""40""><circle             cx=""20"" cy=""20"" r=""20"" fill=""green"" /></svg>","null","html-keyboard-response","301","619692","0.0-8.0-2.16","","kr39sfwrcl","1","1605128727596","","","","",""
"null","<p class=""stimulus"">+</p>","null","html-keyboard-response","302","620381","0.0-8.0-0.17","","kr39sfwrcl","1","1605128727596","","","","",""
"1805.8099998161197","<p class='stimulus'>Your little bird red sleeps</p>","70","html-keyboard-response","303","622192","0.0-8.0-1.17","","kr39sfwrcl","1","1605128727596","transword","3","13","true",""
"null","<svg width=""40"" height=""40""><circle             cx=""20"" cy=""20"" r=""20"" fill=""green"" /></svg>","null","html-keyboard-response","304","624194","0.0-8.0-2.17","","kr39sfwrcl","1","1605128727596","","","","",""
"null","<p class=""stimulus"">+</p>","null","html-keyboard-response","305","624883","0.0-8.0-0.18","","kr39sfwrcl","1","1605128727596","","","","",""
"1486.464999616146","<p class='stimulus'>You came after the meal</p>","74","html-keyboard-response","306","626376","0.0-8.0-1.18","","kr39sfwrcl","1","1605128727596","gram","3","135","true",""
"null","<svg width=""40"" height=""40""><circle             cx=""20"" cy=""20"" r=""20"" fill=""green"" /></svg>","null","html-keyboard-response","307","628380","0.0-8.0-2.18","","kr39sfwrcl","1","1605128727596","","","","",""
"null","<p class=""stimulus"">+</p>","null","html-keyboard-response","308","629069","0.0-8.0-0.19","","kr39sfwrcl","1","1605128727596","","","","",""
"1356.4349999651313","<p class='stimulus'>His small drinks hamster quickly</p>","70","html-keyboard-response","309","630432","0.0-8.0-1.19","","kr39sfwrcl","1","1605128727596","transword","3","36","true",""
"null","<svg width=""40"" height=""40""><circle             cx=""20"" cy=""20"" r=""20"" fill=""green"" /></svg>","null","html-keyboard-response","310","632436","0.0-8.0-2.19","","kr39sfwrcl","1","1605128727596","","","","",""
"null","<p class=""stimulus"">+</p>","null","html-keyboard-response","311","633126","0.0-8.0-0.20","","kr39sfwrcl","1","1605128727596","","","","",""
"1476.8349998630583","<p class='stimulus'>They will to talk dirty</p>","70","html-keyboard-response","312","634609","0.0-8.0-1.20","","kr39sfwrcl","1","1605128727596","control","3","76","true",""
"null","<svg width=""40"" height=""40""><circle             cx=""20"" cy=""20"" r=""20"" fill=""green"" /></svg>","null","html-keyboard-response","313","636613","0.0-8.0-2.20","","kr39sfwrcl","1","1605128727596","","","","",""
"null","<p class=""stimulus"">+</p>","null","html-keyboard-response","314","637303","0.0-8.0-0.21","","kr39sfwrcl","1","1605128727596","","","","",""
"1243.094999808818","<p class='stimulus'>We hope can you hungry</p>","70","html-keyboard-response","315","638552","0.0-8.0-1.21","","kr39sfwrcl","1","1605128727596","control","3","54","true",""
"null","<svg width=""40"" height=""40""><circle             cx=""20"" cy=""20"" r=""20"" fill=""green"" /></svg>","null","html-keyboard-response","316","640556","0.0-8.0-2.21","","kr39sfwrcl","1","1605128727596","","","","",""
"null","<p class=""stimulus"">+</p>","null","html-keyboard-response","317","641248","0.0-8.0-0.22","","kr39sfwrcl","1","1605128727596","","","","",""
"1502.8099999763072","<p class='stimulus'>They scratched the winning tickets</p>","74","html-keyboard-response","318","642755","0.0-8.0-1.22","","kr39sfwrcl","1","1605128727596","gram","3","153","true",""
"null","<svg width=""40"" height=""40""><circle             cx=""20"" cy=""20"" r=""20"" fill=""green"" /></svg>","null","html-keyboard-response","319","644757","0.0-8.0-2.22","","kr39sfwrcl","1","1605128727596","","","","",""
"null","<p class=""stimulus"">+</p>","null","html-keyboard-response","320","645446","0.0-8.0-0.23","","kr39sfwrcl","1","1605128727596","","","","",""
"1320.4149999655783","<p class='stimulus'>This tall is mug flights</p>","70","html-keyboard-response","321","646772","0.0-8.0-1.23","","kr39sfwrcl","1","1605128727596","control","3","55","true",""
"null","<svg width=""40"" height=""40""><circle             cx=""20"" cy=""20"" r=""20"" fill=""green"" /></svg>","null","html-keyboard-response","322","648774","0.0-8.0-2.23","","kr39sfwrcl","1","1605128727596","","","","",""
"null","<p class=""stimulus"">+</p>","null","html-keyboard-response","323","649463","0.0-8.0-0.24","","kr39sfwrcl","1","1605128727596","","","","",""
"1110.1100002415478","<p class='stimulus'>She will lend me money</p>","74","html-keyboard-response","324","650576","0.0-8.0-1.24","","kr39sfwrcl","1","1605128727596","gram","3","154","true",""
"null","<svg width=""40"" height=""40""><circle             cx=""20"" cy=""20"" r=""20"" fill=""green"" /></svg>","null","html-keyboard-response","325","652580","0.0-8.0-2.24","","kr39sfwrcl","1","1605128727596","","","","",""
"null","<p class=""stimulus"">+</p>","null","html-keyboard-response","326","653269","0.0-8.0-0.25","","kr39sfwrcl","1","1605128727596","","","","",""
"1210.7000001706183","<p class='stimulus'>The white runs cat away</p>","70","html-keyboard-response","327","654487","0.0-8.0-1.25","","kr39sfwrcl","1","1605128727596","transword","3","16","true",""
"null","<svg width=""40"" height=""40""><circle             cx=""20"" cy=""20"" r=""20"" fill=""green"" /></svg>","null","html-keyboard-response","328","656490","0.0-8.0-2.25","","kr39sfwrcl","1","1605128727596","","","","",""
"null","<p class=""stimulus"">+</p>","null","html-keyboard-response","329","657179","0.0-8.0-0.26","","kr39sfwrcl","1","1605128727596","","","","",""
"1695.0099999085069","<p class='stimulus'>Your ugly parrot white talks</p>","70","html-keyboard-response","330","658878","0.0-8.0-1.26","","kr39sfwrcl","1","1605128727596","transword","3","15","true",""
"null","<svg width=""40"" height=""40""><circle             cx=""20"" cy=""20"" r=""20"" fill=""green"" /></svg>","null","html-keyboard-response","331","660882","0.0-8.0-2.26","","kr39sfwrcl","1","1605128727596","","","","",""
"null","<p class=""stimulus"">+</p>","null","html-keyboard-response","332","661572","0.0-8.0-0.27","","kr39sfwrcl","1","1605128727596","","","","",""
"951.7549998126924","<p class='stimulus'>He takes a morning nap</p>","74","html-keyboard-response","333","662526","0.0-8.0-1.27","","kr39sfwrcl","1","1605128727596","gram","3","116","true",""
"null","<svg width=""40"" height=""40""><circle             cx=""20"" cy=""20"" r=""20"" fill=""green"" /></svg>","null","html-keyboard-response","334","664531","0.0-8.0-2.27","","kr39sfwrcl","1","1605128727596","","","","",""
"null","<p class=""stimulus"">+</p>","null","html-keyboard-response","335","665221","0.0-8.0-0.28","","kr39sfwrcl","1","1605128727596","","","","",""
"940.8400002866983","<p class='stimulus'>A large bites mouse strongly</p>","70","html-keyboard-response","336","666167","0.0-8.0-1.28","","kr39sfwrcl","1","1605128727596","transword","3","14","true",""
"null","<svg width=""40"" height=""40""><circle             cx=""20"" cy=""20"" r=""20"" fill=""green"" /></svg>","null","html-keyboard-response","337","668169","0.0-8.0-2.28","","kr39sfwrcl","1","1605128727596","","","","",""
"null","<p class=""stimulus"">+</p>","null","html-keyboard-response","338","668858","0.0-8.0-0.29","","kr39sfwrcl","1","1605128727596","","","","",""
"1353.110000025481","<p class='stimulus'>Your flat became roof you</p>","70","html-keyboard-response","339","670214","0.0-8.0-1.29","","kr39sfwrcl","1","1605128727596","control","3","75","true",""
"null","<svg width=""40"" height=""40""><circle             cx=""20"" cy=""20"" r=""20"" fill=""green"" /></svg>","null","html-keyboard-response","340","672216","0.0-8.0-2.29","","kr39sfwrcl","1","1605128727596","","","","",""
"null","<p class=""stimulus"">+</p>","null","html-keyboard-response","341","672908","0.0-8.0-0.30","","kr39sfwrcl","1","1605128727596","","","","",""
"932.3599999770522","<p class='stimulus'>He lies in the sand</p>","74","html-keyboard-response","342","673849","0.0-8.0-1.30","","kr39sfwrcl","1","1605128727596","gram","3","156","true",""
"null","<svg width=""40"" height=""40""><circle             cx=""20"" cy=""20"" r=""20"" fill=""green"" /></svg>","null","html-keyboard-response","343","675852","0.0-8.0-2.30","","kr39sfwrcl","1","1605128727596","","","","",""
"null","<p class=""stimulus"">+</p>","null","html-keyboard-response","344","676541","0.0-8.0-0.31","","kr39sfwrcl","1","1605128727596","","","","",""
"901.7599998041987","<p class='stimulus'>That guy will not come</p>","74","html-keyboard-response","345","677448","0.0-8.0-1.31","","kr39sfwrcl","1","1605128727596","gram","3","115","true",""
"null","<svg width=""40"" height=""40""><circle             cx=""20"" cy=""20"" r=""20"" fill=""green"" /></svg>","null","html-keyboard-response","346","679450","0.0-8.0-2.31","","kr39sfwrcl","1","1605128727596","","","","",""
"null","<p class=""stimulus"">+</p>","null","html-keyboard-response","347","680141","0.0-8.0-0.32","","kr39sfwrcl","1","1605128727596","","","","",""
"1593.7299998477101","<p class='stimulus'>The rose has prickly thorns</p>","74","html-keyboard-response","348","681740","0.0-8.0-1.32","","kr39sfwrcl","1","1605128727596","gram","3","133","true",""
"null","<svg width=""40"" height=""40""><circle             cx=""20"" cy=""20"" r=""20"" fill=""green"" /></svg>","null","html-keyboard-response","349","683742","0.0-8.0-2.32","","kr39sfwrcl","1","1605128727596","","","","",""
"null","<p class=""stimulus"">+</p>","null","html-keyboard-response","350","684431","0.0-8.0-0.33","","kr39sfwrcl","1","1605128727596","","","","",""
"1438.6149998754263","<p class='stimulus'>They love punctual the broken</p>","70","html-keyboard-response","351","685875","0.0-8.0-1.33","","kr39sfwrcl","1","1605128727596","control","3","56","true",""
"null","<svg width=""40"" height=""40""><circle             cx=""20"" cy=""20"" r=""20"" fill=""green"" /></svg>","null","html-keyboard-response","352","687877","0.0-8.0-2.33","","kr39sfwrcl","1","1605128727596","","","","",""
"null","<p class=""stimulus"">+</p>","null","html-keyboard-response","353","688566","0.0-8.0-0.34","","kr39sfwrcl","1","1605128727596","","","","",""
"1647.869999986142","<p class='stimulus'>You know about it now</p>","74","html-keyboard-response","354","690222","0.0-8.0-1.34","","kr39sfwrcl","1","1605128727596","gram","3","134","true",""
"null","<svg width=""40"" height=""40""><circle             cx=""20"" cy=""20"" r=""20"" fill=""green"" /></svg>","null","html-keyboard-response","355","692226","0.0-8.0-2.34","","kr39sfwrcl","1","1605128727596","","","","",""
"null","<p class=""stimulus"">+</p>","null","html-keyboard-response","356","692918","0.0-8.0-0.35","","kr39sfwrcl","1","1605128727596","","","","",""
"1353.9149998687208","<p class='stimulus'>He would green like apples</p>","70","html-keyboard-response","357","694277","0.0-8.0-1.35","","kr39sfwrcl","1","1605128727596","transword","3","33","true",""
"null","<svg width=""40"" height=""40""><circle             cx=""20"" cy=""20"" r=""20"" fill=""green"" /></svg>","null","html-keyboard-response","358","696280","0.0-8.0-2.35","","kr39sfwrcl","1","1605128727596","","","","",""
"null","<p class=""stimulus"">+</p>","null","html-keyboard-response","359","696969","0.0-8.0-0.36","","kr39sfwrcl","1","1605128727596","","","","",""
"1216.8499999679625","<p class='stimulus'>She asks for some dessert</p>","74","html-keyboard-response","360","698191","0.0-8.0-1.36","","kr39sfwrcl","1","1605128727596","gram","3","157","true",""
"null","<svg width=""40"" height=""40""><circle             cx=""20"" cy=""20"" r=""20"" fill=""green"" /></svg>","null","html-keyboard-response","361","700193","0.0-8.0-2.36","","kr39sfwrcl","1","1605128727596","","","","",""
"null","<p class=""stimulus"">+</p>","null","html-keyboard-response","362","700884","0.0-8.0-0.37","","kr39sfwrcl","1","1605128727596","","","","",""
"1561.1449996940792","<p class='stimulus'>The leaves drop during fall</p>","74","html-keyboard-response","363","702451","0.0-8.0-1.37","","kr39sfwrcl","1","1605128727596","gram","3","136","true",""
"null","<svg width=""40"" height=""40""><circle             cx=""20"" cy=""20"" r=""20"" fill=""green"" /></svg>","null","html-keyboard-response","364","704454","0.0-8.0-2.37","","kr39sfwrcl","1","1605128727596","","","","",""
"null","<p class=""stimulus"">+</p>","null","html-keyboard-response","365","705143","0.0-8.0-0.38","","kr39sfwrcl","1","1605128727596","","","","",""
"1320.9899999201298","<p class='stimulus'>Your sharp turned nose bed</p>","70","html-keyboard-response","366","706470","0.0-8.0-1.38","","kr39sfwrcl","1","1605128727596","control","3","73","true",""
"null","<svg width=""40"" height=""40""><circle             cx=""20"" cy=""20"" r=""20"" fill=""green"" /></svg>","null","html-keyboard-response","367","708474","0.0-8.0-2.38","","kr39sfwrcl","1","1605128727596","","","","",""
"null","<p class=""stimulus"">+</p>","null","html-keyboard-response","368","709163","0.0-8.0-0.39","","kr39sfwrcl","1","1605128727596","","","","",""
"1374.2399998009205","<p class='stimulus'>You like the green beans</p>","74","html-keyboard-response","369","710544","0.0-8.0-1.39","","kr39sfwrcl","1","1605128727596","gram","3","155","true",""
"null","<svg width=""40"" height=""40""><circle             cx=""20"" cy=""20"" r=""20"" fill=""green"" /></svg>","null","html-keyboard-response","370","712547","0.0-8.0-2.39","","kr39sfwrcl","1","1605128727596","","","","",""
"81373.1900001876","You have completed block 3 of 4. You can take a short pause before continuing; press spacebar when you are ready to continue.<br /><br />[Press spacebar to begin the next block.]","32","html-keyboard-response","371","793923","0.0-9.0","","kr39sfwrcl","1","1605128727596","","","","",""
"null","<p class=""stimulus"">+</p>","null","html-keyboard-response","372","794569","0.0-10.0-0.0","","kr39sfwrcl","1","1605128727596","","","","",""
"1704.0599999018013","<p class='stimulus'>They need go to back</p>","74","html-keyboard-response","373","796279","0.0-10.0-1.0","","kr39sfwrcl","1","1605128727596","transword","4","22","false",""
"null","<svg width=""40"" height=""40""><circle             cx=""20"" cy=""20"" r=""20"" fill=""red"" /></svg>","null","html-keyboard-response","374","798282","0.0-10.0-2.0","","kr39sfwrcl","1","1605128727596","","","","",""
"null","<p class=""stimulus"">+</p>","null","html-keyboard-response","375","798928","0.0-10.0-0.1","","kr39sfwrcl","1","1605128727596","","","","",""
"1079.9249997362494","<p class='stimulus'>This grizzly bear is hunting</p>","74","html-keyboard-response","376","800014","0.0-10.0-1.1","","kr39sfwrcl","1","1605128727596","gram","4","99","true",""
"null","<svg width=""40"" height=""40""><circle             cx=""20"" cy=""20"" r=""20"" fill=""green"" /></svg>","null","html-keyboard-response","377","802022","0.0-10.0-2.1","","kr39sfwrcl","1","1605128727596","","","","",""
"null","<p class=""stimulus"">+</p>","null","html-keyboard-response","378","802673","0.0-10.0-0.2","","kr39sfwrcl","1","1605128727596","","","","",""
"1252.0650001242757","<p class='stimulus'>I think ate you arrived</p>","70","html-keyboard-response","379","803926","0.0-10.0-1.2","","kr39sfwrcl","1","1605128727596","control","4","81","true",""
"null","<svg width=""40"" height=""40""><circle             cx=""20"" cy=""20"" r=""20"" fill=""green"" /></svg>","null","html-keyboard-response","380","805928","0.0-10.0-2.2","","kr39sfwrcl","1","1605128727596","","","","",""
"null","<p class=""stimulus"">+</p>","null","html-keyboard-response","381","806575","0.0-10.0-0.3","","kr39sfwrcl","1","1605128727596","","","","",""
"1012.1999997645617","<p class='stimulus'>He received a few gifts</p>","74","html-keyboard-response","382","807589","0.0-10.0-1.3","","kr39sfwrcl","1","1605128727596","gram","4","118","true",""
"null","<svg width=""40"" height=""40""><circle             cx=""20"" cy=""20"" r=""20"" fill=""green"" /></svg>","null","html-keyboard-response","383","809591","0.0-10.0-2.3","","kr39sfwrcl","1","1605128727596","","","","",""
"null","<p class=""stimulus"">+</p>","null","html-keyboard-response","384","810237","0.0-10.0-0.4","","kr39sfwrcl","1","1605128727596","","","","",""
"3145.11499973014","<p class='stimulus'>Your big bag blue snapped</p>","70","html-keyboard-response","385","813385","0.0-10.0-1.4","","kr39sfwrcl","1","1605128727596","transword","4","19","true",""
"null","<svg width=""40"" height=""40""><circle             cx=""20"" cy=""20"" r=""20"" fill=""green"" /></svg>","null","html-keyboard-response","386","815386","0.0-10.0-2.4","","kr39sfwrcl","1","1605128727596","","","","",""
"null","<p class=""stimulus"">+</p>","null","html-keyboard-response","387","816031","0.0-10.0-0.5","","kr39sfwrcl","1","1605128727596","","","","",""
"1376.1749998666346","<p class='stimulus'>She felt sleepy earlier today</p>","74","html-keyboard-response","388","817413","0.0-10.0-1.5","","kr39sfwrcl","1","1605128727596","gram","4","139","true",""
"null","<svg width=""40"" height=""40""><circle             cx=""20"" cy=""20"" r=""20"" fill=""green"" /></svg>","null","html-keyboard-response","389","819416","0.0-10.0-2.5","","kr39sfwrcl","1","1605128727596","","","","",""
"null","<p class=""stimulus"">+</p>","null","html-keyboard-response","390","820063","0.0-10.0-0.6","","kr39sfwrcl","1","1605128727596","","","","",""
"2687.4249996617436","<p class='stimulus'>Their sheep all sleeps unfortunate</p>","70","html-keyboard-response","391","822756","0.0-10.0-1.6","","kr39sfwrcl","1","1605128727596","control","4","60","true",""
"null","<svg width=""40"" height=""40""><circle             cx=""20"" cy=""20"" r=""20"" fill=""green"" /></svg>","null","html-keyboard-response","392","824761","0.0-10.0-2.6","","kr39sfwrcl","1","1605128727596","","","","",""
"null","<p class=""stimulus"">+</p>","null","html-keyboard-response","393","825408","0.0-10.0-0.7","","kr39sfwrcl","1","1605128727596","","","","",""
"1040.2150000445545","<p class='stimulus'>You are on a bus</p>","74","html-keyboard-response","394","826450","0.0-10.0-1.7","","kr39sfwrcl","1","1605128727596","gram","4","160","true",""
"null","<svg width=""40"" height=""40""><circle             cx=""20"" cy=""20"" r=""20"" fill=""green"" /></svg>","null","html-keyboard-response","395","828452","0.0-10.0-2.7","","kr39sfwrcl","1","1605128727596","","","","",""
"null","<p class=""stimulus"">+</p>","null","html-keyboard-response","396","829099","0.0-10.0-0.8","","kr39sfwrcl","1","1605128727596","","","","",""
"1492.324999999255","<p class='stimulus'>They would like to rest</p>","74","html-keyboard-response","397","830599","0.0-10.0-1.8","","kr39sfwrcl","1","1605128727596","gram","4","140","true",""
"null","<svg width=""40"" height=""40""><circle             cx=""20"" cy=""20"" r=""20"" fill=""green"" /></svg>","null","html-keyboard-response","398","832603","0.0-10.0-2.8","","kr39sfwrcl","1","1605128727596","","","","",""
"null","<p class=""stimulus"">+</p>","null","html-keyboard-response","399","833268","0.0-10.0-0.9","","kr39sfwrcl","1","1605128727596","","","","",""
"1418.3649998158216","<p class='stimulus'>Their cute swims duck slowly</p>","70","html-keyboard-response","400","834692","0.0-10.0-1.9","","kr39sfwrcl","1","1605128727596","transword","4","18","true",""
"null","<svg width=""40"" height=""40""><circle             cx=""20"" cy=""20"" r=""20"" fill=""green"" /></svg>","null","html-keyboard-response","401","836696","0.0-10.0-2.9","","kr39sfwrcl","1","1605128727596","","","","",""
"null","<p class=""stimulus"">+</p>","null","html-keyboard-response","402","837346","0.0-10.0-0.10","","kr39sfwrcl","1","1605128727596","","","","",""
"1343.929999973625","<p class='stimulus'>The great nearly lady succeeds</p>","70","html-keyboard-response","403","838696","0.0-10.0-1.10","","kr39sfwrcl","1","1605128727596","transword","4","41","true",""
"null","<svg width=""40"" height=""40""><circle             cx=""20"" cy=""20"" r=""20"" fill=""green"" /></svg>","null","html-keyboard-response","404","840699","0.0-10.0-2.10","","kr39sfwrcl","1","1605128727596","","","","",""
"null","<p class=""stimulus"">+</p>","null","html-keyboard-response","405","841346","0.0-10.0-0.11","","kr39sfwrcl","1","1605128727596","","","","",""
"1495.2150001190603","<p class='stimulus'>We buy whole grain cereal</p>","74","html-keyboard-response","406","842844","0.0-10.0-1.11","","kr39sfwrcl","1","1605128727596","gram","4","142","true",""
"null","<svg width=""40"" height=""40""><circle             cx=""20"" cy=""20"" r=""20"" fill=""green"" /></svg>","null","html-keyboard-response","407","844848","0.0-10.0-2.11","","kr39sfwrcl","1","1605128727596","","","","",""
"null","<p class=""stimulus"">+</p>","null","html-keyboard-response","408","845495","0.0-10.0-0.12","","kr39sfwrcl","1","1605128727596","","","","",""
"1489.1650001518428","<p class='stimulus'>Our tired already baby yawned</p>","70","html-keyboard-response","409","846987","0.0-10.0-1.12","","kr39sfwrcl","1","1605128727596","transword","4","39","true",""
"null","<svg width=""40"" height=""40""><circle             cx=""20"" cy=""20"" r=""20"" fill=""green"" /></svg>","null","html-keyboard-response","410","848995","0.0-10.0-2.12","","kr39sfwrcl","1","1605128727596","","","","",""
"null","<p class=""stimulus"">+</p>","null","html-keyboard-response","411","849641","0.0-10.0-0.13","","kr39sfwrcl","1","1605128727596","","","","",""
"1721.940000075847","<p class='stimulus'>These dirty are walls much</p>","70","html-keyboard-response","412","851366","0.0-10.0-1.13","","kr39sfwrcl","1","1605128727596","control","4","61","true",""
"null","<svg width=""40"" height=""40""><circle             cx=""20"" cy=""20"" r=""20"" fill=""green"" /></svg>","null","html-keyboard-response","413","853370","0.0-10.0-2.13","","kr39sfwrcl","1","1605128727596","","","","",""
"null","<p class=""stimulus"">+</p>","null","html-keyboard-response","414","854015","0.0-10.0-0.14","","kr39sfwrcl","1","1605128727596","","","","",""
"1127.3150001652539","<p class='stimulus'>That chicken is laying eggs</p>","74","html-keyboard-response","415","855145","0.0-10.0-1.14","","kr39sfwrcl","1","1605128727596","gram","4","100","true",""
"null","<svg width=""40"" height=""40""><circle             cx=""20"" cy=""20"" r=""20"" fill=""green"" /></svg>","null","html-keyboard-response","416","857149","0.0-10.0-2.14","","kr39sfwrcl","1","1605128727596","","","","",""
"null","<p class=""stimulus"">+</p>","null","html-keyboard-response","417","857795","0.0-10.0-0.15","","kr39sfwrcl","1","1605128727596","","","","",""
"974.9299995601177","<p class='stimulus'>I prefer not to speak</p>","74","html-keyboard-response","418","858773","0.0-10.0-1.15","","kr39sfwrcl","1","1605128727596","gram","4","101","true",""
"null","<svg width=""40"" height=""40""><circle             cx=""20"" cy=""20"" r=""20"" fill=""green"" /></svg>","null","html-keyboard-response","419","860776","0.0-10.0-2.15","","kr39sfwrcl","1","1605128727596","","","","",""
"null","<p class=""stimulus"">+</p>","null","html-keyboard-response","420","861422","0.0-10.0-0.16","","kr39sfwrcl","1","1605128727596","","","","",""
"1731.7449999973178","<p class='stimulus'>She would want some shoes</p>","74","html-keyboard-response","421","863156","0.0-10.0-1.16","","kr39sfwrcl","1","1605128727596","gram","4","98","true",""
"null","<svg width=""40"" height=""40""><circle             cx=""20"" cy=""20"" r=""20"" fill=""green"" /></svg>","null","html-keyboard-response","422","865161","0.0-10.0-2.16","","kr39sfwrcl","1","1605128727596","","","","",""
"null","<p class=""stimulus"">+</p>","null","html-keyboard-response","423","865808","0.0-10.0-0.17","","kr39sfwrcl","1","1605128727596","","","","",""
"1037.9349999129772","<p class='stimulus'>We arrived at our destination</p>","74","html-keyboard-response","424","866848","0.0-10.0-1.17","","kr39sfwrcl","1","1605128727596","gram","4","159","true",""
"null","<svg width=""40"" height=""40""><circle             cx=""20"" cy=""20"" r=""20"" fill=""green"" /></svg>","null","html-keyboard-response","425","868852","0.0-10.0-2.17","","kr39sfwrcl","1","1605128727596","","","","",""
"null","<p class=""stimulus"">+</p>","null","html-keyboard-response","426","869499","0.0-10.0-0.18","","kr39sfwrcl","1","1605128727596","","","","",""
"1332.4300004169345","<p class='stimulus'>He likes having sweet coffee</p>","74","html-keyboard-response","427","870833","0.0-10.0-1.18","","kr39sfwrcl","1","1605128727596","gram","4","102","true",""
"null","<svg width=""40"" height=""40""><circle             cx=""20"" cy=""20"" r=""20"" fill=""green"" /></svg>","null","html-keyboard-response","428","872835","0.0-10.0-2.18","","kr39sfwrcl","1","1605128727596","","","","",""
"null","<p class=""stimulus"">+</p>","null","html-keyboard-response","429","873483","0.0-10.0-0.19","","kr39sfwrcl","1","1605128727596","","","","",""
"1283.3700003102422","<p class='stimulus'>The silly knows boy nothing</p>","70","html-keyboard-response","430","874769","0.0-10.0-1.19","","kr39sfwrcl","1","1605128727596","transword","4","21","true",""
"null","<svg width=""40"" height=""40""><circle             cx=""20"" cy=""20"" r=""20"" fill=""green"" /></svg>","null","html-keyboard-response","431","876774","0.0-10.0-2.19","","kr39sfwrcl","1","1605128727596","","","","",""
"null","<p class=""stimulus"">+</p>","null","html-keyboard-response","432","877421","0.0-10.0-0.20","","kr39sfwrcl","1","1605128727596","","","","",""
"2914.349999744445","<p class='stimulus'>Her old cooks aunt well</p>","70","html-keyboard-response","433","880338","0.0-10.0-1.20","","kr39sfwrcl","1","1605128727596","transword","4","40","true",""
"null","<svg width=""40"" height=""40""><circle             cx=""20"" cy=""20"" r=""20"" fill=""green"" /></svg>","null","html-keyboard-response","434","882345","0.0-10.0-2.20","","kr39sfwrcl","1","1605128727596","","","","",""
"null","<p class=""stimulus"">+</p>","null","html-keyboard-response","435","882991","0.0-10.0-0.21","","kr39sfwrcl","1","1605128727596","","","","",""
"1467.160000000149","<p class='stimulus'>That sad is news day</p>","70","html-keyboard-response","436","884472","0.0-10.0-1.21","","kr39sfwrcl","1","1605128727596","control","4","59","true",""
"null","<svg width=""40"" height=""40""><circle             cx=""20"" cy=""20"" r=""20"" fill=""green"" /></svg>","null","html-keyboard-response","437","886476","0.0-10.0-2.21","","kr39sfwrcl","1","1605128727596","","","","",""
"null","<p class=""stimulus"">+</p>","null","html-keyboard-response","438","887122","0.0-10.0-0.22","","kr39sfwrcl","1","1605128727596","","","","",""
"1591.545000206679","<p class='stimulus'>Those ladies a laugh drunk</p>","70","html-keyboard-response","439","888720","0.0-10.0-1.22","","kr39sfwrcl","1","1605128727596","control","4","78","true",""
"null","<svg width=""40"" height=""40""><circle             cx=""20"" cy=""20"" r=""20"" fill=""green"" /></svg>","null","html-keyboard-response","440","890724","0.0-10.0-2.22","","kr39sfwrcl","1","1605128727596","","","","",""
"null","<p class=""stimulus"">+</p>","null","html-keyboard-response","441","891370","0.0-10.0-0.23","","kr39sfwrcl","1","1605128727596","","","","",""
"1336.6399998776615","<p class='stimulus'>My wool is sweater us</p>","70","html-keyboard-response","442","892714","0.0-10.0-1.23","","kr39sfwrcl","1","1605128727596","control","4","79","true",""
"null","<svg width=""40"" height=""40""><circle             cx=""20"" cy=""20"" r=""20"" fill=""green"" /></svg>","null","html-keyboard-response","443","894717","0.0-10.0-2.23","","kr39sfwrcl","1","1605128727596","","","","",""
"null","<p class=""stimulus"">+</p>","null","html-keyboard-response","444","895362","0.0-10.0-0.24","","kr39sfwrcl","1","1605128727596","","","","",""
"1358.3650002256036","<p class='stimulus'>His beard looks quite good</p>","74","html-keyboard-response","445","896726","0.0-10.0-1.24","","kr39sfwrcl","1","1605128727596","gram","4","141","true",""
"null","<svg width=""40"" height=""40""><circle             cx=""20"" cy=""20"" r=""20"" fill=""green"" /></svg>","null","html-keyboard-response","446","898730","0.0-10.0-2.24","","kr39sfwrcl","1","1605128727596","","","","",""
"null","<p class=""stimulus"">+</p>","null","html-keyboard-response","447","899376","0.0-10.0-0.25","","kr39sfwrcl","1","1605128727596","","","","",""
"1380.6300000287592","<p class='stimulus'>My two are siblings talking</p>","74","html-keyboard-response","448","900763","0.0-10.0-1.25","","kr39sfwrcl","1","1605128727596","transword","4","42","false",""
"null","<svg width=""40"" height=""40""><circle             cx=""20"" cy=""20"" r=""20"" fill=""red"" /></svg>","null","html-keyboard-response","449","902767","0.0-10.0-2.25","","kr39sfwrcl","1","1605128727596","","","","",""
"null","<p class=""stimulus"">+</p>","null","html-keyboard-response","450","903414","0.0-10.0-0.26","","kr39sfwrcl","1","1605128727596","","","","",""
"1542.7299998700619","<p class='stimulus'>He is aware of it</p>","74","html-keyboard-response","451","904962","0.0-10.0-1.26","","kr39sfwrcl","1","1605128727596","gram","4","161","true",""
"null","<svg width=""40"" height=""40""><circle             cx=""20"" cy=""20"" r=""20"" fill=""green"" /></svg>","null","html-keyboard-response","452","906966","0.0-10.0-2.26","","kr39sfwrcl","1","1605128727596","","","","",""
"null","<p class=""stimulus"">+</p>","null","html-keyboard-response","453","907611","0.0-10.0-0.27","","kr39sfwrcl","1","1605128727596","","","","",""
"1026.1399997398257","<p class='stimulus'>I stopped on the road</p>","74","html-keyboard-response","454","908645","0.0-10.0-1.27","","kr39sfwrcl","1","1605128727596","gram","4","158","true",""
"null","<svg width=""40"" height=""40""><circle             cx=""20"" cy=""20"" r=""20"" fill=""green"" /></svg>","null","html-keyboard-response","455","910649","0.0-10.0-2.27","","kr39sfwrcl","1","1605128727596","","","","",""
"null","<p class=""stimulus"">+</p>","null","html-keyboard-response","456","911295","0.0-10.0-0.28","","kr39sfwrcl","1","1605128727596","","","","",""
"1021.4450000785291","<p class='stimulus'>The next finally train it</p>","70","html-keyboard-response","457","912323","0.0-10.0-1.28","","kr39sfwrcl","1","1605128727596","control","4","82","true",""
"null","<svg width=""40"" height=""40""><circle             cx=""20"" cy=""20"" r=""20"" fill=""green"" /></svg>","null","html-keyboard-response","458","914326","0.0-10.0-2.28","","kr39sfwrcl","1","1605128727596","","","","",""
"null","<p class=""stimulus"">+</p>","null","html-keyboard-response","459","914971","0.0-10.0-0.29","","kr39sfwrcl","1","1605128727596","","","","",""
"2177.7449999935925","<p class='stimulus'>Her son so eats sturdy</p>","70","html-keyboard-response","460","917154","0.0-10.0-1.29","","kr39sfwrcl","1","1605128727596","control","4","62","true",""
"null","<svg width=""40"" height=""40""><circle             cx=""20"" cy=""20"" r=""20"" fill=""green"" /></svg>","null","html-keyboard-response","461","919158","0.0-10.0-2.29","","kr39sfwrcl","1","1605128727596","","","","",""
"null","<p class=""stimulus"">+</p>","null","html-keyboard-response","462","919805","0.0-10.0-0.30","","kr39sfwrcl","1","1605128727596","","","","",""
"1965.3399996459484","<p class='stimulus'>You have inform to expensive</p>","70","html-keyboard-response","463","921777","0.0-10.0-1.30","","kr39sfwrcl","1","1605128727596","control","4","80","true",""
"null","<svg width=""40"" height=""40""><circle             cx=""20"" cy=""20"" r=""20"" fill=""green"" /></svg>","null","html-keyboard-response","464","923779","0.0-10.0-2.30","","kr39sfwrcl","1","1605128727596","","","","",""
"null","<p class=""stimulus"">+</p>","null","html-keyboard-response","465","924425","0.0-10.0-0.31","","kr39sfwrcl","1","1605128727596","","","","",""
"1688.7799999676645","<p class='stimulus'>The hardworking rooster arrives early</p>","74","html-keyboard-response","466","926119","0.0-10.0-1.31","","kr39sfwrcl","1","1605128727596","gram","4","121","true",""
"null","<svg width=""40"" height=""40""><circle             cx=""20"" cy=""20"" r=""20"" fill=""green"" /></svg>","null","html-keyboard-response","467","928123","0.0-10.0-2.31","","kr39sfwrcl","1","1605128727596","","","","",""
"null","<p class=""stimulus"">+</p>","null","html-keyboard-response","468","928769","0.0-10.0-0.32","","kr39sfwrcl","1","1605128727596","","","","",""
"1768.2650000788271","<p class='stimulus'>It will quite rain stuck</p>","70","html-keyboard-response","469","930543","0.0-10.0-1.32","","kr39sfwrcl","1","1605128727596","control","4","58","true",""
"null","<svg width=""40"" height=""40""><circle             cx=""20"" cy=""20"" r=""20"" fill=""green"" /></svg>","null","html-keyboard-response","470","932545","0.0-10.0-2.32","","kr39sfwrcl","1","1605128727596","","","","",""
"null","<p class=""stimulus"">+</p>","null","html-keyboard-response","471","933191","0.0-10.0-0.33","","kr39sfwrcl","1","1605128727596","","","","",""
"1177.9899997636676","<p class='stimulus'>They sold all three cars</p>","74","html-keyboard-response","472","934372","0.0-10.0-1.33","","kr39sfwrcl","1","1605128727596","gram","4","138","true",""
"null","<svg width=""40"" height=""40""><circle             cx=""20"" cy=""20"" r=""20"" fill=""green"" /></svg>","null","html-keyboard-response","473","936374","0.0-10.0-2.33","","kr39sfwrcl","1","1605128727596","","","","",""
"null","<p class=""stimulus"">+</p>","null","html-keyboard-response","474","937018","0.0-10.0-0.34","","kr39sfwrcl","1","1605128727596","","","","",""
"1490.5199999921024","<p class='stimulus'>Her step leaves mother soon</p>","70","html-keyboard-response","475","938512","0.0-10.0-1.34","","kr39sfwrcl","1","1605128727596","transword","4","38","true",""
"null","<svg width=""40"" height=""40""><circle             cx=""20"" cy=""20"" r=""20"" fill=""green"" /></svg>","null","html-keyboard-response","476","940513","0.0-10.0-2.34","","kr39sfwrcl","1","1605128727596","","","","",""
"null","<p class=""stimulus"">+</p>","null","html-keyboard-response","477","941158","0.0-10.0-0.35","","kr39sfwrcl","1","1605128727596","","","","",""
"2192.6799998618662","<p class='stimulus'>She really enjoys the summer</p>","74","html-keyboard-response","478","943353","0.0-10.0-1.35","","kr39sfwrcl","1","1605128727596","gram","4","119","true",""
"null","<svg width=""40"" height=""40""><circle             cx=""20"" cy=""20"" r=""20"" fill=""green"" /></svg>","null","html-keyboard-response","479","945356","0.0-10.0-2.35","","kr39sfwrcl","1","1605128727596","","","","",""
"null","<p class=""stimulus"">+</p>","null","html-keyboard-response","480","946000","0.0-10.0-0.36","","kr39sfwrcl","1","1605128727596","","","","",""
"2233.1900000572205","<p class='stimulus'>This wonderful park is round</p>","74","html-keyboard-response","481","948243","0.0-10.0-1.36","","kr39sfwrcl","1","1605128727596","gram","4","120","true",""
"null","<svg width=""40"" height=""40""><circle             cx=""20"" cy=""20"" r=""20"" fill=""green"" /></svg>","null","html-keyboard-response","482","950249","0.0-10.0-2.36","","kr39sfwrcl","1","1605128727596","","","","",""
"null","<p class=""stimulus"">+</p>","null","html-keyboard-response","483","950894","0.0-10.0-0.37","","kr39sfwrcl","1","1605128727596","","","","",""
"1650.9400000795722","<p class='stimulus'>The next person is blond</p>","74","html-keyboard-response","484","952557","0.0-10.0-1.37","","kr39sfwrcl","1","1605128727596","gram","4","122","true",""
"null","<svg width=""40"" height=""40""><circle             cx=""20"" cy=""20"" r=""20"" fill=""green"" /></svg>","null","html-keyboard-response","485","954561","0.0-10.0-2.37","","kr39sfwrcl","1","1605128727596","","","","",""
"null","<p class=""stimulus"">+</p>","null","html-keyboard-response","486","955207","0.0-10.0-0.38","","kr39sfwrcl","1","1605128727596","","","","",""
"2196.13999966532","<p class='stimulus'>My crazy leaves aunt tomorrow</p>","70","html-keyboard-response","487","957408","0.0-10.0-1.38","","kr39sfwrcl","1","1605128727596","transword","4","20","true",""
"null","<svg width=""40"" height=""40""><circle             cx=""20"" cy=""20"" r=""20"" fill=""green"" /></svg>","null","html-keyboard-response","488","959409","0.0-10.0-2.38","","kr39sfwrcl","1","1605128727596","","","","",""
"null","<p class=""stimulus"">+</p>","null","html-keyboard-response","489","960054","0.0-10.0-0.39","","kr39sfwrcl","1","1605128727596","","","","",""
"1502.459999639541","<p class='stimulus'>We boiled all these potatoes</p>","74","html-keyboard-response","490","961558","0.0-10.0-1.39","","kr39sfwrcl","1","1605128727596","gram","4","162","true",""
"null","<svg width=""40"" height=""40""><circle             cx=""20"" cy=""20"" r=""20"" fill=""green"" /></svg>","null","html-keyboard-response","491","963560","0.0-10.0-2.39","","kr39sfwrcl","1","1605128727596","","","","",""
"7624.869999941438","","","survey-html-form","492","971194","0.0-11.0","","kr39sfwrcl","1","1605128727596","","","","","{""age"":""42"",""gender"":""male""}"
